key_resp.keys,key_resp.rt,key_resp_16.keys,key_resp_16.rt,key_resp_14.keys,key_resp_14.rt,key_resp_15.keys,key_resp_15.rt,key_resp_17.keys,key_resp_17.rt,key_resp_9.keys,key_resp_9.rt,key_resp_10.keys,key_resp_10.rt,Flower1,Ecc,Flower_2,similarity,response_time,mouse_5.x,mouse_5.y,mouse_5.leftButton,mouse_5.midButton,mouse_5.rightButton,mouse_5.clicked_name,mouse_10.x,mouse_10.y,mouse_10.leftButton,mouse_10.midButton,mouse_10.rightButton,mouse_10.clicked_name,mouse_7.x,mouse_7.y,mouse_7.leftButton,mouse_7.midButton,mouse_7.rightButton,catchnumberprac,mouse_6.x,mouse_6.y,mouse_6.leftButton,mouse_6.midButton,mouse_6.rightButton,duringprac.thisRepN,duringprac.thisTrialN,duringprac.thisN,duringprac.thisIndex,duringprac.ran,participant,session,date,expName,psychopyVersion,OS,frameRate,study_id,mouse_7.clicked_name,catchprac,mouse_6.clicked_name,key_resp_22.keys,key_resp_22.rt,mouse.x,mouse.y,mouse.leftButton,mouse.midButton,mouse.rightButton,mouse.clicked_name,Flower2,trialnumber,mouse_2.x,mouse_2.y,mouse_2.leftButton,mouse_2.midButton,mouse_2.rightButton,mouse_2.clicked_name,mouse_3.x,mouse_3.y,mouse_3.leftButton,mouse_3.midButton,mouse_3.rightButton,catchresponse,catchnumber,catchtrialorder,mouse_11.x,mouse_11.y,mouse_11.leftButton,mouse_11.midButton,mouse_11.rightButton,trials_2.thisRepN,trials_2.thisTrialN,trials_2.thisN,trials_2.thisIndex,trials_2.ran,mouse_3.clicked_name,mouse_11.clicked_name,trials_3.thisRepN,trials_3.thisTrialN,trials_3.thisN,trials_3.thisIndex,trials_3.ran,answer1,rt1,answer2,rt2,answer3,rt3,answer4,rt4,answer5,rt5,answer6,rt6,answer8,rt8,answer7,rt7
space,1.1497,space,4.9986,space,4.1967,space,3.8535,space,2.8716,space,0.8803,space,2.4353,1,FF,6,6,10.2209,134,51,1,0,0,response1disk_5,2,-1,1,0,0,rectangle_8,2,-1,1,0,0,3,2,-1,1,0,0,0,0,0,1,1,60cc889d5bbfb9535a13f18f,60cc8a9c94786ad3a166c87c,2021-06-18_12h59.38.656,FlowerSimilarity_Experiment,2021.1.2,Win32,60.0024001,60cc862d586bafd4cd2fa98a,,,,,,,,,,,,,,,,,,,,,,,,,,,,,,,,,,,,,,,,,,,,,,,,,,,,,,,,,,,,
,,,,,,,,,,,,,,6,FF,5,4,2.5019,40,-121,1,0,0,response3disk_5,4,-10,1,0,0,rectangle_8,4,-10,1,0,0,3,4,-10,1,0,0,0,1,1,4,1,60cc889d5bbfb9535a13f18f,60cc8a9c94786ad3a166c87c,2021-06-18_12h59.38.656,FlowerSimilarity_Experiment,2021.1.2,Win32,60.0024001,60cc862d586bafd4cd2fa98a,,,,,,,,,,,,,,,,,,,,,,,,,,,,,,,,,,,,,,,,,,,,,,,,,,,,,,,,,,,,
,,,,,,,,,,,,,,2,FF,6,7,1.8186,59,120,1,0,0,response1disk_5,7,-4,1,0,0,rectangle_8,7,-4,1,0,0,3,7,-4,1,0,0,0,2,2,2,1,60cc889d5bbfb9535a13f18f,60cc8a9c94786ad3a166c87c,2021-06-18_12h59.38.656,FlowerSimilarity_Experiment,2021.1.2,Win32,60.0024001,60cc862d586bafd4cd2fa98a,,,,,,,,,,,,,,,,,,,,,,,,,,,,,,,,,,,,,,,,,,,,,,,,,,,,,,,,,,,,
,,,,,,,,,,,,,,6,FF,4,0,1.6855,-67,108,1,0,0,response7disk_5,14,-10,1,0,0,rectangle_8,14,-10,1,0,0,3,14,-10,1,0,0,0,3,3,0,1,60cc889d5bbfb9535a13f18f,60cc8a9c94786ad3a166c87c,2021-06-18_12h59.38.656,FlowerSimilarity_Experiment,2021.1.2,Win32,60.0024001,60cc862d586bafd4cd2fa98a,,,,,,,,,,,,,,,,,,,,,,,,,,,,,,,,,,,,,,,,,,,,,,,,,,,,,,,,,,,,
,,,,,,,,,,,,,,5,FF,5,3,2.0853,-42,-100,1,0,0,response5disk_5,0,-8,1,0,0,rectangle_8,-48,-119,1,0,0,3,5,-5,1,0,0,0,4,4,6,1,60cc889d5bbfb9535a13f18f,60cc8a9c94786ad3a166c87c,2021-06-18_12h59.38.656,FlowerSimilarity_Experiment,2021.1.2,Win32,60.0024001,60cc862d586bafd4cd2fa98a,response5disk_7,3,rectangle_4,,,,,,,,,,,,,,,,,,,,,,,,,,,,,,,,,,,,,,,,,,,,,,,,,,,,,,,,,
,,,,,,,,,,,,,,4,FF,1,0,3.452,-53,125,1,0,0,response7disk_5,-12,6,1,0,0,rectangle_8,-51,-100,1,0,0,3,-1,-9,1,0,0,0,5,5,5,1,60cc889d5bbfb9535a13f18f,60cc8a9c94786ad3a166c87c,2021-06-18_12h59.38.656,FlowerSimilarity_Experiment,2021.1.2,Win32,60.0024001,60cc862d586bafd4cd2fa98a,response5disk_7,3,rectangle_4,,,,,,,,,,,,,,,,,,,,,,,,,,,,,,,,,,,,,,,,,,,,,,,,,,,,,,,,,
,,,,,,,,,,,,,,3,FF,6,0,1.1519,-45,116,1,0,0,response7disk_5,10,-11,1,0,0,rectangle_8,10,-11,1,0,0,3,10,-11,1,0,0,0,6,6,3,1,60cc889d5bbfb9535a13f18f,60cc8a9c94786ad3a166c87c,2021-06-18_12h59.38.656,FlowerSimilarity_Experiment,2021.1.2,Win32,60.0024001,60cc862d586bafd4cd2fa98a,,,,,,,,,,,,,,,,,,,,,,,,,,,,,,,,,,,,,,,,,,,,,,,,,,,,,,,,,,,,
,,,,,,,,,,,,,,1,FF,,4,1.9996,,,,,,,,,,,,,,,,,,,,,,,,,,,,,60cc889d5bbfb9535a13f18f,60cc8a9c94786ad3a166c87c,2021-06-18_12h59.38.656,FlowerSimilarity_Experiment,2021.1.2,Win32,60.0024001,60cc862d586bafd4cd2fa98a,,,,space,1.4023,55,-122,1,0,0,response3disk,6,1,7,-2,1,0,0,rectangle,7,-2,1,0,0,,6,"[251,18,149,161,252,110,236,204,276,204,259,130,119,150,267,66,227,89,137,98]",7,-2,1,0,0,0,0,0,30,1,,,,,,,,,,,,,,,,,,,,,,,
,,,,,,,,,,,,,,5,FF,,5,2.3028,,,,,,,,,,,,,,,,,,,,,,,,,,,,,60cc889d5bbfb9535a13f18f,60cc8a9c94786ad3a166c87c,2021-06-18_12h59.38.656,FlowerSimilarity_Experiment,2021.1.2,Win32,60.0024001,60cc862d586bafd4cd2fa98a,,,,,,101,-57,1,0,0,response3disk,1,2,11,3,1,0,0,rectangle,11,3,1,0,0,,1,"[251,18,149,161,252,110,236,204,276,204,259,130,119,150,267,66,227,89,137,98]",11,3,1,0,0,0,1,1,45,1,,,,,,,,,,,,,,,,,,,,,,,
,,,,,,,,,,,,,,6,FF,,0,0.9686,,,,,,,,,,,,,,,,,,,,,,,,,,,,,60cc889d5bbfb9535a13f18f,60cc8a9c94786ad3a166c87c,2021-06-18_12h59.38.656,FlowerSimilarity_Experiment,2021.1.2,Win32,60.0024001,60cc862d586bafd4cd2fa98a,,,,,,-46,106,1,0,0,response7disk,5,3,2,-3,1,0,0,rectangle,2,-3,1,0,0,,5,"[251,18,149,161,252,110,236,204,276,204,259,130,119,150,267,66,227,89,137,98]",2,-3,1,0,0,0,2,2,14,1,,,,,,,,,,,,,,,,,,,,,,,
,,,,,,,,,,,,,,2,FF,,6,1.7169,,,,,,,,,,,,,,,,,,,,,,,,,,,,,60cc889d5bbfb9535a13f18f,60cc8a9c94786ad3a166c87c,2021-06-18_12h59.38.656,FlowerSimilarity_Experiment,2021.1.2,Win32,60.0024001,60cc862d586bafd4cd2fa98a,,,,,,102,63,1,0,0,response1disk,7,4,19,9,1,0,0,rectangle,19,9,1,0,0,,5,"[251,18,149,161,252,110,236,204,276,204,259,130,119,150,267,66,227,89,137,98]",19,9,1,0,0,0,3,3,15,1,,,,,,,,,,,,,,,,,,,,,,,
,,,,,,,,,,,,,,3,FF,,3,1.9502,,,,,,,,,,,,,,,,,,,,,,,,,,,,,60cc889d5bbfb9535a13f18f,60cc8a9c94786ad3a166c87c,2021-06-18_12h59.38.656,FlowerSimilarity_Experiment,2021.1.2,Win32,60.0024001,60cc862d586bafd4cd2fa98a,,,,,,-54,-102,1,0,0,response5disk,2,5,7,9,1,0,0,rectangle,7,9,1,0,0,,5,"[251,18,149,161,252,110,236,204,276,204,259,130,119,150,267,66,227,89,137,98]",7,9,1,0,0,0,4,4,35,1,,,,,,,,,,,,,,,,,,,,,,,
,,,,,,,,,,,,,,7,FF,,7,1.0524,,,,,,,,,,,,,,,,,,,,,,,,,,,,,60cc889d5bbfb9535a13f18f,60cc8a9c94786ad3a166c87c,2021-06-18_12h59.38.656,FlowerSimilarity_Experiment,2021.1.2,Win32,60.0024001,60cc862d586bafd4cd2fa98a,,,,,,77,112,1,0,0,response1disk,3,6,22,-12,1,0,0,rectangle,22,-12,1,0,0,,1,"[251,18,149,161,252,110,236,204,276,204,259,130,119,150,267,66,227,89,137,98]",22,-12,1,0,0,0,5,5,9,1,,,,,,,,,,,,,,,,,,,,,,,
,,,,,,,,,,,,,,3,FF,,7,0.8187,,,,,,,,,,,,,,,,,,,,,,,,,,,,,60cc889d5bbfb9535a13f18f,60cc8a9c94786ad3a166c87c,2021-06-18_12h59.38.656,FlowerSimilarity_Experiment,2021.1.2,Win32,60.0024001,60cc862d586bafd4cd2fa98a,,,,,,59,120,1,0,0,response1disk,3,7,6,-5,1,0,0,rectangle,6,-5,1,0,0,,0,"[251,18,149,161,252,110,236,204,276,204,259,130,119,150,267,66,227,89,137,98]",6,-5,1,0,0,0,6,6,1,1,,,,,,,,,,,,,,,,,,,,,,,
,,,,,,,,,,,,,,6,FF,,3,0.8835,,,,,,,,,,,,,,,,,,,,,,,,,,,,,60cc889d5bbfb9535a13f18f,60cc8a9c94786ad3a166c87c,2021-06-18_12h59.38.656,FlowerSimilarity_Experiment,2021.1.2,Win32,60.0024001,60cc862d586bafd4cd2fa98a,,,,,,-52,-124,1,0,0,response5disk,2,8,1,16,1,0,0,rectangle,1,16,1,0,0,,7,"[251,18,149,161,252,110,236,204,276,204,259,130,119,150,267,66,227,89,137,98]",1,16,1,0,0,0,7,7,11,1,,,,,,,,,,,,,,,,,,,,,,,
,,,,,,,,,,,,,,1,FF,,6,0.9165,,,,,,,,,,,,,,,,,,,,,,,,,,,,,60cc889d5bbfb9535a13f18f,60cc8a9c94786ad3a166c87c,2021-06-18_12h59.38.656,FlowerSimilarity_Experiment,2021.1.2,Win32,60.0024001,60cc862d586bafd4cd2fa98a,,,,,,99,68,1,0,0,response1disk,3,9,6,2,1,0,0,rectangle,6,2,1,0,0,,2,"[251,18,149,161,252,110,236,204,276,204,259,130,119,150,267,66,227,89,137,98]",6,2,1,0,0,0,8,8,41,1,,,,,,,,,,,,,,,,,,,,,,,
,,,,,,,,,,,,,,2,FF,,6,0.7504,,,,,,,,,,,,,,,,,,,,,,,,,,,,,60cc889d5bbfb9535a13f18f,60cc8a9c94786ad3a166c87c,2021-06-18_12h59.38.656,FlowerSimilarity_Experiment,2021.1.2,Win32,60.0024001,60cc862d586bafd4cd2fa98a,,,,,,120,47,1,0,0,response1disk,4,10,5,13,1,0,0,rectangle,5,13,1,0,0,,6,"[251,18,149,161,252,110,236,204,276,204,259,130,119,150,267,66,227,89,137,98]",5,13,1,0,0,0,9,9,38,1,,,,,,,,,,,,,,,,,,,,,,,
,,,,,,,,,,,,,,7,FF,,5,1.3365,,,,,,,,,,,,,,,,,,,,,,,,,,,,,60cc889d5bbfb9535a13f18f,60cc8a9c94786ad3a166c87c,2021-06-18_12h59.38.656,FlowerSimilarity_Experiment,2021.1.2,Win32,60.0024001,60cc862d586bafd4cd2fa98a,,,,,,110,-57,1,0,0,response3disk,5,11,1,-1,1,0,0,rectangle,1,-1,1,0,0,,5,"[251,18,149,161,252,110,236,204,276,204,259,130,119,150,267,66,227,89,137,98]",1,-1,1,0,0,0,10,10,40,1,,,,,,,,,,,,,,,,,,,,,,,
,,,,,,,,,,,,,,2,FF,,5,0.884,,,,,,,,,,,,,,,,,,,,,,,,,,,,,60cc889d5bbfb9535a13f18f,60cc8a9c94786ad3a166c87c,2021-06-18_12h59.38.656,FlowerSimilarity_Experiment,2021.1.2,Win32,60.0024001,60cc862d586bafd4cd2fa98a,,,,,,115,-44,1,0,0,response3disk,5,12,-3,-3,1,0,0,rectangle,-3,-3,1,0,0,,3,"[251,18,149,161,252,110,236,204,276,204,259,130,119,150,267,66,227,89,137,98]",-3,-3,1,0,0,0,11,11,19,1,,,,,,,,,,,,,,,,,,,,,,,
,,,,,,,,,,,,,,7,FF,,7,0.9021,,,,,,,,,,,,,,,,,,,,,,,,,,,,,60cc889d5bbfb9535a13f18f,60cc8a9c94786ad3a166c87c,2021-06-18_12h59.38.656,FlowerSimilarity_Experiment,2021.1.2,Win32,60.0024001,60cc862d586bafd4cd2fa98a,,,,,,66,113,1,0,0,response1disk,7,13,16,0,1,0,0,rectangle,16,0,1,0,0,,1,"[251,18,149,161,252,110,236,204,276,204,259,130,119,150,267,66,227,89,137,98]",16,0,1,0,0,0,12,12,3,1,,,,,,,,,,,,,,,,,,,,,,,
,,,,,,,,,,,,,,4,FF,,0,1.1853,,,,,,,,,,,,,,,,,,,,,,,,,,,,,60cc889d5bbfb9535a13f18f,60cc8a9c94786ad3a166c87c,2021-06-18_12h59.38.656,FlowerSimilarity_Experiment,2021.1.2,Win32,60.0024001,60cc862d586bafd4cd2fa98a,,,,,,-47,115,1,0,0,response7disk,5,14,28,8,1,0,0,rectangle,28,8,1,0,0,,1,"[251,18,149,161,252,110,236,204,276,204,259,130,119,150,267,66,227,89,137,98]",28,8,1,0,0,0,13,13,18,1,,,,,,,,,,,,,,,,,,,,,,,
,,,,,,,,,,,,,,7,FF,,0,0.7354,,,,,,,,,,,,,,,,,,,,,,,,,,,,,60cc889d5bbfb9535a13f18f,60cc8a9c94786ad3a166c87c,2021-06-18_12h59.38.656,FlowerSimilarity_Experiment,2021.1.2,Win32,60.0024001,60cc862d586bafd4cd2fa98a,,,,,,-58,110,1,0,0,response7disk,6,15,-17,16,1,0,0,rectangle,-17,16,1,0,0,,6,"[251,18,149,161,252,110,236,204,276,204,259,130,119,150,267,66,227,89,137,98]",-17,16,1,0,0,0,14,14,21,1,,,,,,,,,,,,,,,,,,,,,,,
,,,,,,,,,,,,,,1,FF,,7,1.1186,,,,,,,,,,,,,,,,,,,,,,,,,,,,,60cc889d5bbfb9535a13f18f,60cc8a9c94786ad3a166c87c,2021-06-18_12h59.38.656,FlowerSimilarity_Experiment,2021.1.2,Win32,60.0024001,60cc862d586bafd4cd2fa98a,,,,,,67,129,1,0,0,response1disk,1,16,15,-5,1,0,0,rectangle,15,-5,1,0,0,,7,"[251,18,149,161,252,110,236,204,276,204,259,130,119,150,267,66,227,89,137,98]",15,-5,1,0,0,0,15,15,7,1,,,,,,,,,,,,,,,,,,,,,,,
,,,,,,,,,,,,,,6,FF,,0,1.1334,,,,,,,,,,,,,,,,,,,,,,,,,,,,,60cc889d5bbfb9535a13f18f,60cc8a9c94786ad3a166c87c,2021-06-18_12h59.38.656,FlowerSimilarity_Experiment,2021.1.2,Win32,60.0024001,60cc862d586bafd4cd2fa98a,,,,,,-52,120,1,0,0,response7disk,4,17,-17,19,1,0,0,rectangle,-17,19,1,0,0,,1,"[251,18,149,161,252,110,236,204,276,204,259,130,119,150,267,66,227,89,137,98]",-17,19,1,0,0,0,16,16,23,1,,,,,,,,,,,,,,,,,,,,,,,
,,,,,,,,,,,,,,3,FF,,0,0.8835,,,,,,,,,,,,,,,,,,,,,,,,,,,,,60cc889d5bbfb9535a13f18f,60cc8a9c94786ad3a166c87c,2021-06-18_12h59.38.656,FlowerSimilarity_Experiment,2021.1.2,Win32,60.0024001,60cc862d586bafd4cd2fa98a,,,,,,-48,110,1,0,0,response7disk,5,18,-2,-2,1,0,0,rectangle,-44,-94,1,0,0,3,3,"[251,18,149,161,252,110,236,204,276,204,259,130,119,150,267,66,227,89,137,98]",5,5,1,0,0,0,17,17,47,1,response5disk_3,rectangle,,,,,,,,,,,,,,,,,,,,,
,,,,,,,,,,,,,,4,FF,,0,0.8019,,,,,,,,,,,,,,,,,,,,,,,,,,,,,60cc889d5bbfb9535a13f18f,60cc8a9c94786ad3a166c87c,2021-06-18_12h59.38.656,FlowerSimilarity_Experiment,2021.1.2,Win32,60.0024001,60cc862d586bafd4cd2fa98a,,,,,,-54,116,1,0,0,response7disk,1,19,-2,-14,1,0,0,rectangle,-2,-14,1,0,0,3,5,"[251,18,149,161,252,110,236,204,276,204,259,130,119,150,267,66,227,89,137,98]",-2,-14,1,0,0,0,18,18,0,1,,,,,,,,,,,,,,,,,,,,,,,
,,,,,,,,,,,,,,4,FF,,7,1.1855,,,,,,,,,,,,,,,,,,,,,,,,,,,,,60cc889d5bbfb9535a13f18f,60cc8a9c94786ad3a166c87c,2021-06-18_12h59.38.656,FlowerSimilarity_Experiment,2021.1.2,Win32,60.0024001,60cc862d586bafd4cd2fa98a,,,,,,54,131,1,0,0,response1disk,4,20,15,-8,1,0,0,rectangle,15,-8,1,0,0,3,1,"[251,18,149,161,252,110,236,204,276,204,259,130,119,150,267,66,227,89,137,98]",15,-8,1,0,0,0,19,19,37,1,,,,,,,,,,,,,,,,,,,,,,,
,,,,,,,,,,,,,,1,FF,,6,1.0003,,,,,,,,,,,,,,,,,,,,,,,,,,,,,60cc889d5bbfb9535a13f18f,60cc8a9c94786ad3a166c87c,2021-06-18_12h59.38.656,FlowerSimilarity_Experiment,2021.1.2,Win32,60.0024001,60cc862d586bafd4cd2fa98a,,,,,,143,51,1,0,0,response1disk,5,21,-3,1,1,0,0,rectangle,-3,1,1,0,0,3,0,"[251,18,149,161,252,110,236,204,276,204,259,130,119,150,267,66,227,89,137,98]",-3,1,1,0,0,0,20,20,2,1,,,,,,,,,,,,,,,,,,,,,,,
,,,,,,,,,,,,,,3,FF,,4,0.8029,,,,,,,,,,,,,,,,,,,,,,,,,,,,,60cc889d5bbfb9535a13f18f,60cc8a9c94786ad3a166c87c,2021-06-18_12h59.38.656,FlowerSimilarity_Experiment,2021.1.2,Win32,60.0024001,60cc862d586bafd4cd2fa98a,,,,,,23,-109,1,0,0,response3disk,4,22,15,-6,1,0,0,rectangle,15,-6,1,0,0,3,0,"[251,18,149,161,252,110,236,204,276,204,259,130,119,150,267,66,227,89,137,98]",15,-6,1,0,0,0,21,21,26,1,,,,,,,,,,,,,,,,,,,,,,,
,,,,,,,,,,,,,,3,FF,,7,1.2165,,,,,,,,,,,,,,,,,,,,,,,,,,,,,60cc889d5bbfb9535a13f18f,60cc8a9c94786ad3a166c87c,2021-06-18_12h59.38.656,FlowerSimilarity_Experiment,2021.1.2,Win32,60.0024001,60cc862d586bafd4cd2fa98a,,,,,,72,103,1,0,0,response1disk,7,23,18,-8,1,0,0,rectangle,18,-8,1,0,0,3,4,"[251,18,149,161,252,110,236,204,276,204,259,130,119,150,267,66,227,89,137,98]",18,-8,1,0,0,0,22,22,29,1,,,,,,,,,,,,,,,,,,,,,,,
,,,,,,,,,,,,,,1,FF,,0,0.5688,,,,,,,,,,,,,,,,,,,,,,,,,,,,,60cc889d5bbfb9535a13f18f,60cc8a9c94786ad3a166c87c,2021-06-18_12h59.38.656,FlowerSimilarity_Experiment,2021.1.2,Win32,60.0024001,60cc862d586bafd4cd2fa98a,,,,,,-57,113,1,0,0,response7disk,2,24,-14,7,1,0,0,rectangle,-14,7,1,0,0,3,6,"[251,18,149,161,252,110,236,204,276,204,259,130,119,150,267,66,227,89,137,98]",-14,7,1,0,0,0,23,23,31,1,,,,,,,,,,,,,,,,,,,,,,,
,,,,,,,,,,,,,,2,FF,,7,0.6838,,,,,,,,,,,,,,,,,,,,,,,,,,,,,60cc889d5bbfb9535a13f18f,60cc8a9c94786ad3a166c87c,2021-06-18_12h59.38.656,FlowerSimilarity_Experiment,2021.1.2,Win32,60.0024001,60cc862d586bafd4cd2fa98a,,,,,,30,108,1,0,0,response1disk,2,25,25,6,1,0,0,rectangle,25,6,1,0,0,3,2,"[251,18,149,161,252,110,236,204,276,204,259,130,119,150,267,66,227,89,137,98]",25,6,1,0,0,0,24,24,44,1,,,,,,,,,,,,,,,,,,,,,,,
,,,,,,,,,,,,,,5,FF,,3,0.75,,,,,,,,,,,,,,,,,,,,,,,,,,,,,60cc889d5bbfb9535a13f18f,60cc8a9c94786ad3a166c87c,2021-06-18_12h59.38.656,FlowerSimilarity_Experiment,2021.1.2,Win32,60.0024001,60cc862d586bafd4cd2fa98a,,,,,,-53,-95,1,0,0,response5disk,7,26,-3,0,1,0,0,rectangle,-3,0,1,0,0,3,0,"[251,18,149,161,252,110,236,204,276,204,259,130,119,150,267,66,227,89,137,98]",-3,0,1,0,0,0,25,25,8,1,,,,,,,,,,,,,,,,,,,,,,,
,,,,,,,,,,,,,,2,FF,,7,0.4688,,,,,,,,,,,,,,,,,,,,,,,,,,,,,60cc889d5bbfb9535a13f18f,60cc8a9c94786ad3a166c87c,2021-06-18_12h59.38.656,FlowerSimilarity_Experiment,2021.1.2,Win32,60.0024001,60cc862d586bafd4cd2fa98a,,,,,,84,105,1,0,0,response1disk,6,27,9,-15,1,0,0,rectangle,9,-15,1,0,0,3,7,"[251,18,149,161,252,110,236,204,276,204,259,130,119,150,267,66,227,89,137,98]",9,-15,1,0,0,0,26,26,13,1,,,,,,,,,,,,,,,,,,,,,,,
,,,,,,,,,,,,,,1,FF,,7,0.6167,,,,,,,,,,,,,,,,,,,,,,,,,,,,,60cc889d5bbfb9535a13f18f,60cc8a9c94786ad3a166c87c,2021-06-18_12h59.38.656,FlowerSimilarity_Experiment,2021.1.2,Win32,60.0024001,60cc862d586bafd4cd2fa98a,,,,,,60,98,1,0,0,response1disk,4,28,35,3,1,0,0,rectangle,35,3,1,0,0,3,6,"[251,18,149,161,252,110,236,204,276,204,259,130,119,150,267,66,227,89,137,98]",35,3,1,0,0,0,27,27,27,1,,,,,,,,,,,,,,,,,,,,,,,
,,,,,,,,,,,,,,5,FF,,7,0.8989,,,,,,,,,,,,,,,,,,,,,,,,,,,,,60cc889d5bbfb9535a13f18f,60cc8a9c94786ad3a166c87c,2021-06-18_12h59.38.656,FlowerSimilarity_Experiment,2021.1.2,Win32,60.0024001,60cc862d586bafd4cd2fa98a,,,,,,47,97,1,0,0,response1disk,6,29,1,-4,1,0,0,rectangle,1,-4,1,0,0,3,7,"[251,18,149,161,252,110,236,204,276,204,259,130,119,150,267,66,227,89,137,98]",1,-4,1,0,0,0,28,28,17,1,,,,,,,,,,,,,,,,,,,,,,,
,,,,,,,,,,,,,,4,FF,,5,1.3855,,,,,,,,,,,,,,,,,,,,,,,,,,,,,60cc889d5bbfb9535a13f18f,60cc8a9c94786ad3a166c87c,2021-06-18_12h59.38.656,FlowerSimilarity_Experiment,2021.1.2,Win32,60.0024001,60cc862d586bafd4cd2fa98a,,,,,,100,-42,1,0,0,response3disk,7,30,-18,-11,1,0,0,rectangle,-18,-11,1,0,0,3,0,"[251,18,149,161,252,110,236,204,276,204,259,130,119,150,267,66,227,89,137,98]",-18,-11,1,0,0,0,29,29,16,1,,,,,,,,,,,,,,,,,,,,,,,
,,,,,,,,,,,,,,2,FF,,3,1.0023,,,,,,,,,,,,,,,,,,,,,,,,,,,,,60cc889d5bbfb9535a13f18f,60cc8a9c94786ad3a166c87c,2021-06-18_12h59.38.656,FlowerSimilarity_Experiment,2021.1.2,Win32,60.0024001,60cc862d586bafd4cd2fa98a,,,,,,-44,-94,1,0,0,response5disk,3,31,-2,-6,1,0,0,rectangle,-2,-6,1,0,0,3,1,"[251,18,149,161,252,110,236,204,276,204,259,130,119,150,267,66,227,89,137,98]",-2,-6,1,0,0,0,30,30,36,1,,,,,,,,,,,,,,,,,,,,,,,
,,,,,,,,,,,,,,7,FF,,2,0.8355,,,,,,,,,,,,,,,,,,,,,,,,,,,,,60cc889d5bbfb9535a13f18f,60cc8a9c94786ad3a166c87c,2021-06-18_12h59.38.656,FlowerSimilarity_Experiment,2021.1.2,Win32,60.0024001,60cc862d586bafd4cd2fa98a,,,,,,-101,-64,1,0,0,response5disk,4,32,1,-11,1,0,0,rectangle,1,-11,1,0,0,3,4,"[251,18,149,161,252,110,236,204,276,204,259,130,119,150,267,66,227,89,137,98]",1,-11,1,0,0,0,31,31,48,1,,,,,,,,,,,,,,,,,,,,,,,
,,,,,,,,,,,,,,5,FF,,2,1.1005,,,,,,,,,,,,,,,,,,,,,,,,,,,,,60cc889d5bbfb9535a13f18f,60cc8a9c94786ad3a166c87c,2021-06-18_12h59.38.656,FlowerSimilarity_Experiment,2021.1.2,Win32,60.0024001,60cc862d586bafd4cd2fa98a,,,,,,-93,-57,1,0,0,response5disk,3,33,4,-9,1,0,0,rectangle,4,-9,1,0,0,3,6,"[251,18,149,161,252,110,236,204,276,204,259,130,119,150,267,66,227,89,137,98]",4,-9,1,0,0,0,32,32,24,1,,,,,,,,,,,,,,,,,,,,,,,
,,,,,,,,,,,,,,3,FF,,7,0.8358,,,,,,,,,,,,,,,,,,,,,,,,,,,,,60cc889d5bbfb9535a13f18f,60cc8a9c94786ad3a166c87c,2021-06-18_12h59.38.656,FlowerSimilarity_Experiment,2021.1.2,Win32,60.0024001,60cc862d586bafd4cd2fa98a,,,,,,52,103,1,0,0,response1disk,6,34,17,-2,1,0,0,rectangle,17,-2,1,0,0,3,0,"[251,18,149,161,252,110,236,204,276,204,259,130,119,150,267,66,227,89,137,98]",17,-2,1,0,0,0,33,33,20,1,,,,,,,,,,,,,,,,,,,,,,,
,,,,,,,,,,,,,,6,FF,,7,1.255,,,,,,,,,,,,,,,,,,,,,,,,,,,,,60cc889d5bbfb9535a13f18f,60cc8a9c94786ad3a166c87c,2021-06-18_12h59.38.656,FlowerSimilarity_Experiment,2021.1.2,Win32,60.0024001,60cc862d586bafd4cd2fa98a,,,,,,47,109,1,0,0,response1disk,6,35,19,-13,1,0,0,rectangle,19,-13,1,0,0,3,0,"[251,18,149,161,252,110,236,204,276,204,259,130,119,150,267,66,227,89,137,98]",19,-13,1,0,0,0,34,34,46,1,,,,,,,,,,,,,,,,,,,,,,,
,,,,,,,,,,,,,,2,FF,,7,0.7501,,,,,,,,,,,,,,,,,,,,,,,,,,,,,60cc889d5bbfb9535a13f18f,60cc8a9c94786ad3a166c87c,2021-06-18_12h59.38.656,FlowerSimilarity_Experiment,2021.1.2,Win32,60.0024001,60cc862d586bafd4cd2fa98a,,,,,,52,95,1,0,0,response1disk,1,36,15,12,1,0,0,rectangle,15,12,1,0,0,3,2,"[251,18,149,161,252,110,236,204,276,204,259,130,119,150,267,66,227,89,137,98]",15,12,1,0,0,0,35,35,42,1,,,,,,,,,,,,,,,,,,,,,,,
,,,,,,,,,,,,,,4,FF,,0,0.4668,,,,,,,,,,,,,,,,,,,,,,,,,,,,,60cc889d5bbfb9535a13f18f,60cc8a9c94786ad3a166c87c,2021-06-18_12h59.38.656,FlowerSimilarity_Experiment,2021.1.2,Win32,60.0024001,60cc862d586bafd4cd2fa98a,,,,,,-73,114,1,0,0,response7disk,2,37,-10,-15,1,0,0,rectangle,-10,-15,1,0,0,3,0,"[251,18,149,161,252,110,236,204,276,204,259,130,119,150,267,66,227,89,137,98]",-10,-15,1,0,0,0,36,36,33,1,,,,,,,,,,,,,,,,,,,,,,,
,,,,,,,,,,,,,,7,FF,,4,0.6188,,,,,,,,,,,,,,,,,,,,,,,,,,,,,60cc889d5bbfb9535a13f18f,60cc8a9c94786ad3a166c87c,2021-06-18_12h59.38.656,FlowerSimilarity_Experiment,2021.1.2,Win32,60.0024001,60cc862d586bafd4cd2fa98a,,,,,,85,-108,1,0,0,response3disk,2,38,0,10,1,0,0,rectangle,0,10,1,0,0,3,4,"[251,18,149,161,252,110,236,204,276,204,259,130,119,150,267,66,227,89,137,98]",0,10,1,0,0,0,37,37,12,1,,,,,,,,,,,,,,,,,,,,,,,
,,,,,,,,,,,,,,6,FF,,7,0.5187,,,,,,,,,,,,,,,,,,,,,,,,,,,,,60cc889d5bbfb9535a13f18f,60cc8a9c94786ad3a166c87c,2021-06-18_12h59.38.656,FlowerSimilarity_Experiment,2021.1.2,Win32,60.0024001,60cc862d586bafd4cd2fa98a,,,,,,60,112,1,0,0,response1disk,1,39,3,-10,1,0,0,rectangle,3,-10,1,0,0,3,2,"[251,18,149,161,252,110,236,204,276,204,259,130,119,150,267,66,227,89,137,98]",3,-10,1,0,0,0,38,38,39,1,,,,,,,,,,,,,,,,,,,,,,,
,,,,,,,,,,,,,,1,FF,,3,1.1527,,,,,,,,,,,,,,,,,,,,,,,,,,,,,60cc889d5bbfb9535a13f18f,60cc8a9c94786ad3a166c87c,2021-06-18_12h59.38.656,FlowerSimilarity_Experiment,2021.1.2,Win32,60.0024001,60cc862d586bafd4cd2fa98a,,,,,,-62,-102,1,0,0,response5disk,7,40,4,-2,1,0,0,rectangle,4,-2,1,0,0,3,0,"[251,18,149,161,252,110,236,204,276,204,259,130,119,150,267,66,227,89,137,98]",4,-2,1,0,0,0,39,39,43,1,,,,,,,,,,,,,,,,,,,,,,,
,,,,,,,,,,,,,,5,FF,,7,0.6832,,,,,,,,,,,,,,,,,,,,,,,,,,,,,60cc889d5bbfb9535a13f18f,60cc8a9c94786ad3a166c87c,2021-06-18_12h59.38.656,FlowerSimilarity_Experiment,2021.1.2,Win32,60.0024001,60cc862d586bafd4cd2fa98a,,,,,,40,95,1,0,0,response1disk,5,41,12,-11,1,0,0,rectangle,12,-11,1,0,0,3,3,"[251,18,149,161,252,110,236,204,276,204,259,130,119,150,267,66,227,89,137,98]",12,-11,1,0,0,0,40,40,22,1,,,,,,,,,,,,,,,,,,,,,,,
,,,,,,,,,,,,,,6,FF,,6,0.5832,,,,,,,,,,,,,,,,,,,,,,,,,,,,,60cc889d5bbfb9535a13f18f,60cc8a9c94786ad3a166c87c,2021-06-18_12h59.38.656,FlowerSimilarity_Experiment,2021.1.2,Win32,60.0024001,60cc862d586bafd4cd2fa98a,,,,,,114,54,1,0,0,response1disk,7,42,-33,-14,1,0,0,rectangle,-33,-14,1,0,0,3,6,"[251,18,149,161,252,110,236,204,276,204,259,130,119,150,267,66,227,89,137,98]",-33,-14,1,0,0,0,41,41,32,1,,,,,,,,,,,,,,,,,,,,,,,
,,,,,,,,,,,,,,4,FF,,6,1.8193,,,,,,,,,,,,,,,,,,,,,,,,,,,,,60cc889d5bbfb9535a13f18f,60cc8a9c94786ad3a166c87c,2021-06-18_12h59.38.656,FlowerSimilarity_Experiment,2021.1.2,Win32,60.0024001,60cc862d586bafd4cd2fa98a,,,,,,104,49,1,0,0,response1disk,3,43,7,6,1,0,0,rectangle,7,6,1,0,0,3,4,"[251,18,149,161,252,110,236,204,276,204,259,130,119,150,267,66,227,89,137,98]",7,6,1,0,0,0,42,42,34,1,,,,,,,,,,,,,,,,,,,,,,,
,,,,,,,,,,,,,,3,FF,,1,1.0353,,,,,,,,,,,,,,,,,,,,,,,,,,,,,60cc889d5bbfb9535a13f18f,60cc8a9c94786ad3a166c87c,2021-06-18_12h59.38.656,FlowerSimilarity_Experiment,2021.1.2,Win32,60.0024001,60cc862d586bafd4cd2fa98a,,,,,,-94,44,1,0,0,response7disk,1,44,0,-4,1,0,0,rectangle,0,-4,1,0,0,3,0,"[251,18,149,161,252,110,236,204,276,204,259,130,119,150,267,66,227,89,137,98]",0,-4,1,0,0,0,43,43,6,1,,,,,,,,,,,,,,,,,,,,,,,
,,,,,,,,,,,,,,7,FF,,2,0.9812,,,,,,,,,,,,,,,,,,,,,,,,,,,,,60cc889d5bbfb9535a13f18f,60cc8a9c94786ad3a166c87c,2021-06-18_12h59.38.656,FlowerSimilarity_Experiment,2021.1.2,Win32,60.0024001,60cc862d586bafd4cd2fa98a,,,,,,-96,-53,1,0,0,response5disk,1,45,3,-18,1,0,0,rectangle,3,-18,1,0,0,3,2,"[251,18,149,161,252,110,236,204,276,204,259,130,119,150,267,66,227,89,137,98]",3,-18,1,0,0,0,44,44,4,1,,,,,,,,,,,,,,,,,,,,,,,
,,,,,,,,,,,,,,4,FF,,2,1.0165,,,,,,,,,,,,,,,,,,,,,,,,,,,,,60cc889d5bbfb9535a13f18f,60cc8a9c94786ad3a166c87c,2021-06-18_12h59.38.656,FlowerSimilarity_Experiment,2021.1.2,Win32,60.0024001,60cc862d586bafd4cd2fa98a,,,,,,-116,-37,1,0,0,response5disk,6,46,-11,4,1,0,0,rectangle,-11,4,1,0,0,3,5,"[251,18,149,161,252,110,236,204,276,204,259,130,119,150,267,66,227,89,137,98]",-11,4,1,0,0,0,45,45,25,1,,,,,,,,,,,,,,,,,,,,,,,
,,,,,,,,,,,,,,5,FF,,2,0.8002,,,,,,,,,,,,,,,,,,,,,,,,,,,,,60cc889d5bbfb9535a13f18f,60cc8a9c94786ad3a166c87c,2021-06-18_12h59.38.656,FlowerSimilarity_Experiment,2021.1.2,Win32,60.0024001,60cc862d586bafd4cd2fa98a,,,,,,-113,-46,1,0,0,response5disk,2,47,0,5,1,0,0,rectangle,0,5,1,0,0,3,7,"[251,18,149,161,252,110,236,204,276,204,259,130,119,150,267,66,227,89,137,98]",0,5,1,0,0,0,46,46,28,1,,,,,,,,,,,,,,,,,,,,,,,
,,,,,,,,,,,,,,6,FF,,3,1.0333,,,,,,,,,,,,,,,,,,,,,,,,,,,,,60cc889d5bbfb9535a13f18f,60cc8a9c94786ad3a166c87c,2021-06-18_12h59.38.656,FlowerSimilarity_Experiment,2021.1.2,Win32,60.0024001,60cc862d586bafd4cd2fa98a,,,,,,-50,-115,1,0,0,response5disk,3,48,-6,-5,1,0,0,rectangle,-6,-5,1,0,0,3,0,"[251,18,149,161,252,110,236,204,276,204,259,130,119,150,267,66,227,89,137,98]",-6,-5,1,0,0,0,47,47,10,1,,,,,,,,,,,,,,,,,,,,,,,
,,,,,,,,,,,,,,5,FF,,0,0.735,,,,,,,,,,,,,,,,,,,,,,,,,,,,,60cc889d5bbfb9535a13f18f,60cc8a9c94786ad3a166c87c,2021-06-18_12h59.38.656,FlowerSimilarity_Experiment,2021.1.2,Win32,60.0024001,60cc862d586bafd4cd2fa98a,,,,,,-70,118,1,0,0,response7disk,4,49,-23,-21,1,0,0,rectangle,-23,-21,1,0,0,3,2,"[251,18,149,161,252,110,236,204,276,204,259,130,119,150,267,66,227,89,137,98]",-23,-21,1,0,0,0,48,48,5,1,,,,,,,,,,,,,,,,,,,,,,,
,,,,,,,,,,,,,,,,,,,,,,,,,,,,,,,,,,,,,,,,,,,,,,,60cc889d5bbfb9535a13f18f,60cc8a9c94786ad3a166c87c,2021-06-18_12h59.38.656,FlowerSimilarity_Experiment,2021.1.2,Win32,60.0024001,60cc862d586bafd4cd2fa98a,,,,,,,,,,,,,,,,,,,,,,,,,,,,,,,,,,,,,,,,0,0,0,0,1,,,,,,,,,,,,,,,,
,,,,,,,,,,,,,,1,FF,,4,1.3678,,,,,,,,,,,,,,,,,,,,,,,,,,,,,60cc889d5bbfb9535a13f18f,60cc8a9c94786ad3a166c87c,2021-06-18_12h59.38.656,FlowerSimilarity_Experiment,2021.1.2,Win32,60.0024001,60cc862d586bafd4cd2fa98a,,,,,,42,-117,1,0,0,response3disk,6,50,-13,4,1,0,0,rectangle,-13,4,1,0,0,3,6,"[251,18,149,161,252,110,236,204,276,204,259,130,119,150,267,66,227,89,137,98]",-13,4,1,0,0,0,0,0,30,1,,,,,,,,,,,,,,,,,,,,,,,
,,,,,,,,,,,,,,5,FF,,3,0.6189,,,,,,,,,,,,,,,,,,,,,,,,,,,,,60cc889d5bbfb9535a13f18f,60cc8a9c94786ad3a166c87c,2021-06-18_12h59.38.656,FlowerSimilarity_Experiment,2021.1.2,Win32,60.0024001,60cc862d586bafd4cd2fa98a,,,,,,-57,-100,1,0,0,response5disk,1,51,-4,6,1,0,0,rectangle,-4,6,1,0,0,3,1,"[251,18,149,161,252,110,236,204,276,204,259,130,119,150,267,66,227,89,137,98]",-4,6,1,0,0,0,1,1,45,1,,,,,,,,,,,,,,,,,,,,,,,
,,,,,,,,,,,,,,6,FF,,3,0.7166,,,,,,,,,,,,,,,,,,,,,,,,,,,,,60cc889d5bbfb9535a13f18f,60cc8a9c94786ad3a166c87c,2021-06-18_12h59.38.656,FlowerSimilarity_Experiment,2021.1.2,Win32,60.0024001,60cc862d586bafd4cd2fa98a,,,,,,-46,-116,1,0,0,response5disk,5,52,11,8,1,0,0,rectangle,11,8,1,0,0,3,5,"[251,18,149,161,252,110,236,204,276,204,259,130,119,150,267,66,227,89,137,98]",11,8,1,0,0,0,2,2,14,1,,,,,,,,,,,,,,,,,,,,,,,
,,,,,,,,,,,,,,2,FF,,2,0.9525,,,,,,,,,,,,,,,,,,,,,,,,,,,,,60cc889d5bbfb9535a13f18f,60cc8a9c94786ad3a166c87c,2021-06-18_12h59.38.656,FlowerSimilarity_Experiment,2021.1.2,Win32,60.0024001,60cc862d586bafd4cd2fa98a,,,,,,-110,-57,1,0,0,response5disk,7,53,-4,-3,1,0,0,rectangle,-4,-3,1,0,0,3,5,"[251,18,149,161,252,110,236,204,276,204,259,130,119,150,267,66,227,89,137,98]",-4,-3,1,0,0,0,3,3,15,1,,,,,,,,,,,,,,,,,,,,,,,
,,,,,,,,,,,,,,3,FF,,5,1.3833,,,,,,,,,,,,,,,,,,,,,,,,,,,,,60cc889d5bbfb9535a13f18f,60cc8a9c94786ad3a166c87c,2021-06-18_12h59.38.656,FlowerSimilarity_Experiment,2021.1.2,Win32,60.0024001,60cc862d586bafd4cd2fa98a,,,,,,129,-66,1,0,0,response3disk,2,54,19,-6,1,0,0,rectangle,19,-6,1,0,0,3,5,"[251,18,149,161,252,110,236,204,276,204,259,130,119,150,267,66,227,89,137,98]",19,-6,1,0,0,0,4,4,35,1,,,,,,,,,,,,,,,,,,,,,,,
,,,,,,,,,,,,,,7,FF,,5,0.7337,,,,,,,,,,,,,,,,,,,,,,,,,,,,,60cc889d5bbfb9535a13f18f,60cc8a9c94786ad3a166c87c,2021-06-18_12h59.38.656,FlowerSimilarity_Experiment,2021.1.2,Win32,60.0024001,60cc862d586bafd4cd2fa98a,,,,,,120,-57,1,0,0,response3disk,3,55,26,-5,1,0,0,rectangle,26,-5,1,0,0,3,1,"[251,18,149,161,252,110,236,204,276,204,259,130,119,150,267,66,227,89,137,98]",26,-5,1,0,0,0,5,5,9,1,,,,,,,,,,,,,,,,,,,,,,,
,,,,,,,,,,,,,,3,FF,,7,0.5351,,,,,,,,,,,,,,,,,,,,,,,,,,,,,60cc889d5bbfb9535a13f18f,60cc8a9c94786ad3a166c87c,2021-06-18_12h59.38.656,FlowerSimilarity_Experiment,2021.1.2,Win32,60.0024001,60cc862d586bafd4cd2fa98a,,,,,,52,109,1,0,0,response1disk,3,56,3,4,1,0,0,rectangle,3,4,1,0,0,3,0,"[251,18,149,161,252,110,236,204,276,204,259,130,119,150,267,66,227,89,137,98]",3,4,1,0,0,0,6,6,1,1,,,,,,,,,,,,,,,,,,,,,,,
,,,,,,,,,,,,,,6,FF,,0,0.967,,,,,,,,,,,,,,,,,,,,,,,,,,,,,60cc889d5bbfb9535a13f18f,60cc8a9c94786ad3a166c87c,2021-06-18_12h59.38.656,FlowerSimilarity_Experiment,2021.1.2,Win32,60.0024001,60cc862d586bafd4cd2fa98a,,,,,,-75,132,1,0,0,response7disk,2,57,-14,19,1,0,0,rectangle,-14,19,1,0,0,3,7,"[251,18,149,161,252,110,236,204,276,204,259,130,119,150,267,66,227,89,137,98]",-14,19,1,0,0,0,7,7,11,1,,,,,,,,,,,,,,,,,,,,,,,
,,,,,,,,,,,,,,1,FF,,0,0.635,,,,,,,,,,,,,,,,,,,,,,,,,,,,,60cc889d5bbfb9535a13f18f,60cc8a9c94786ad3a166c87c,2021-06-18_12h59.38.656,FlowerSimilarity_Experiment,2021.1.2,Win32,60.0024001,60cc862d586bafd4cd2fa98a,,,,,,-39,109,1,0,0,response7disk,3,58,-5,1,1,0,0,rectangle,-5,1,1,0,0,3,2,"[251,18,149,161,252,110,236,204,276,204,259,130,119,150,267,66,227,89,137,98]",-5,1,1,0,0,0,8,8,41,1,,,,,,,,,,,,,,,,,,,,,,,
,,,,,,,,,,,,,,2,FF,,4,0.7669,,,,,,,,,,,,,,,,,,,,,,,,,,,,,60cc889d5bbfb9535a13f18f,60cc8a9c94786ad3a166c87c,2021-06-18_12h59.38.656,FlowerSimilarity_Experiment,2021.1.2,Win32,60.0024001,60cc862d586bafd4cd2fa98a,,,,,,51,-115,1,0,0,response3disk,4,59,-4,6,1,0,0,rectangle,-4,6,1,0,0,3,6,"[251,18,149,161,252,110,236,204,276,204,259,130,119,150,267,66,227,89,137,98]",-4,6,1,0,0,0,9,9,38,1,,,,,,,,,,,,,,,,,,,,,,,
,,,,,,,,,,,,,,7,FF,,3,1.4169,,,,,,,,,,,,,,,,,,,,,,,,,,,,,60cc889d5bbfb9535a13f18f,60cc8a9c94786ad3a166c87c,2021-06-18_12h59.38.656,FlowerSimilarity_Experiment,2021.1.2,Win32,60.0024001,60cc862d586bafd4cd2fa98a,,,,,,-47,-84,1,0,0,response5disk,5,60,2,6,1,0,0,rectangle,2,6,1,0,0,3,5,"[251,18,149,161,252,110,236,204,276,204,259,130,119,150,267,66,227,89,137,98]",2,6,1,0,0,0,10,10,40,1,,,,,,,,,,,,,,,,,,,,,,,
,,,,,,,,,,,,,,2,FF,,3,1.5024,,,,,,,,,,,,,,,,,,,,,,,,,,,,,60cc889d5bbfb9535a13f18f,60cc8a9c94786ad3a166c87c,2021-06-18_12h59.38.656,FlowerSimilarity_Experiment,2021.1.2,Win32,60.0024001,60cc862d586bafd4cd2fa98a,,,,,,-40,-107,1,0,0,response5disk,5,61,7,-4,1,0,0,rectangle,7,-4,1,0,0,3,3,"[251,18,149,161,252,110,236,204,276,204,259,130,119,150,267,66,227,89,137,98]",7,-4,1,0,0,0,11,11,19,1,,,,,,,,,,,,,,,,,,,,,,,
,,,,,,,,,,,,,,7,FF,,7,0.8186,,,,,,,,,,,,,,,,,,,,,,,,,,,,,60cc889d5bbfb9535a13f18f,60cc8a9c94786ad3a166c87c,2021-06-18_12h59.38.656,FlowerSimilarity_Experiment,2021.1.2,Win32,60.0024001,60cc862d586bafd4cd2fa98a,,,,,,52,111,1,0,0,response1disk,7,62,10,-9,1,0,0,rectangle,10,-9,1,0,0,3,1,"[251,18,149,161,252,110,236,204,276,204,259,130,119,150,267,66,227,89,137,98]",10,-9,1,0,0,0,12,12,3,1,,,,,,,,,,,,,,,,,,,,,,,
,,,,,,,,,,,,,,4,FF,,0,0.4667,,,,,,,,,,,,,,,,,,,,,,,,,,,,,60cc889d5bbfb9535a13f18f,60cc8a9c94786ad3a166c87c,2021-06-18_12h59.38.656,FlowerSimilarity_Experiment,2021.1.2,Win32,60.0024001,60cc862d586bafd4cd2fa98a,,,,,,-52,101,1,0,0,response7disk,5,63,-17,19,1,0,0,rectangle,-17,19,1,0,0,3,1,"[251,18,149,161,252,110,236,204,276,204,259,130,119,150,267,66,227,89,137,98]",-17,19,1,0,0,0,13,13,18,1,,,,,,,,,,,,,,,,,,,,,,,
,,,,,,,,,,,,,,7,FF,,7,0.6169,,,,,,,,,,,,,,,,,,,,,,,,,,,,,60cc889d5bbfb9535a13f18f,60cc8a9c94786ad3a166c87c,2021-06-18_12h59.38.656,FlowerSimilarity_Experiment,2021.1.2,Win32,60.0024001,60cc862d586bafd4cd2fa98a,,,,,,60,138,1,0,0,response1disk,6,64,39,11,1,0,0,rectangle,39,11,1,0,0,3,6,"[251,18,149,161,252,110,236,204,276,204,259,130,119,150,267,66,227,89,137,98]",39,11,1,0,0,0,14,14,21,1,,,,,,,,,,,,,,,,,,,,,,,
,,,,,,,,,,,,,,1,FF,,7,0.7694,,,,,,,,,,,,,,,,,,,,,,,,,,,,,60cc889d5bbfb9535a13f18f,60cc8a9c94786ad3a166c87c,2021-06-18_12h59.38.656,FlowerSimilarity_Experiment,2021.1.2,Win32,60.0024001,60cc862d586bafd4cd2fa98a,,,,,,62,116,1,0,0,response1disk,1,65,18,9,1,0,0,rectangle,18,9,1,0,0,3,7,"[251,18,149,161,252,110,236,204,276,204,259,130,119,150,267,66,227,89,137,98]",18,9,1,0,0,0,15,15,7,1,,,,,,,,,,,,,,,,,,,,,,,
,,,,,,,,,,,,,,6,FF,,1,1.1665,,,,,,,,,,,,,,,,,,,,,,,,,,,,,60cc889d5bbfb9535a13f18f,60cc8a9c94786ad3a166c87c,2021-06-18_12h59.38.656,FlowerSimilarity_Experiment,2021.1.2,Win32,60.0024001,60cc862d586bafd4cd2fa98a,,,,,,-106,39,1,0,0,response7disk,4,66,7,-4,1,0,0,rectangle,-117,62,1,0,0,1,1,"[251,18,149,161,252,110,236,204,276,204,259,130,119,150,267,66,227,89,137,98]",6,8,1,0,0,0,16,16,23,1,response7disk_3,rectangle,,,,,,,,,,,,,,,,,,,,,
,,,,,,,,,,,,,,3,FF,,7,0.7668,,,,,,,,,,,,,,,,,,,,,,,,,,,,,60cc889d5bbfb9535a13f18f,60cc8a9c94786ad3a166c87c,2021-06-18_12h59.38.656,FlowerSimilarity_Experiment,2021.1.2,Win32,60.0024001,60cc862d586bafd4cd2fa98a,,,,,,61,108,1,0,0,response1disk,5,67,-4,16,1,0,0,rectangle,-4,16,1,0,0,1,3,"[251,18,149,161,252,110,236,204,276,204,259,130,119,150,267,66,227,89,137,98]",-4,16,1,0,0,0,17,17,47,1,,,,,,,,,,,,,,,,,,,,,,,
,,,,,,,,,,,,,,4,FF,,1,1.6521,,,,,,,,,,,,,,,,,,,,,,,,,,,,,60cc889d5bbfb9535a13f18f,60cc8a9c94786ad3a166c87c,2021-06-18_12h59.38.656,FlowerSimilarity_Experiment,2021.1.2,Win32,60.0024001,60cc862d586bafd4cd2fa98a,,,,,,-112,50,1,0,0,response7disk,1,68,-11,7,1,0,0,rectangle,-11,7,1,0,0,1,5,"[251,18,149,161,252,110,236,204,276,204,259,130,119,150,267,66,227,89,137,98]",-11,7,1,0,0,0,18,18,0,1,,,,,,,,,,,,,,,,,,,,,,,
,,,,,,,,,,,,,,4,FF,,0,0.4483,,,,,,,,,,,,,,,,,,,,,,,,,,,,,60cc889d5bbfb9535a13f18f,60cc8a9c94786ad3a166c87c,2021-06-18_12h59.38.656,FlowerSimilarity_Experiment,2021.1.2,Win32,60.0024001,60cc862d586bafd4cd2fa98a,,,,,,-70,120,1,0,0,response7disk,4,69,2,0,1,0,0,rectangle,2,0,1,0,0,1,1,"[251,18,149,161,252,110,236,204,276,204,259,130,119,150,267,66,227,89,137,98]",2,0,1,0,0,0,19,19,37,1,,,,,,,,,,,,,,,,,,,,,,,
,,,,,,,,,,,,,,1,FF,,7,1.2335,,,,,,,,,,,,,,,,,,,,,,,,,,,,,60cc889d5bbfb9535a13f18f,60cc8a9c94786ad3a166c87c,2021-06-18_12h59.38.656,FlowerSimilarity_Experiment,2021.1.2,Win32,60.0024001,60cc862d586bafd4cd2fa98a,,,,,,65,123,1,0,0,response1disk,5,70,11,5,1,0,0,rectangle,11,5,1,0,0,1,0,"[251,18,149,161,252,110,236,204,276,204,259,130,119,150,267,66,227,89,137,98]",11,5,1,0,0,0,20,20,2,1,,,,,,,,,,,,,,,,,,,,,,,
,,,,,,,,,,,,,,3,FF,,7,0.2311,,,,,,,,,,,,,,,,,,,,,,,,,,,,,60cc889d5bbfb9535a13f18f,60cc8a9c94786ad3a166c87c,2021-06-18_12h59.38.656,FlowerSimilarity_Experiment,2021.1.2,Win32,60.0024001,60cc862d586bafd4cd2fa98a,,,,,,64,99,1,0,0,response1disk,4,71,11,4,1,0,0,rectangle,11,4,1,0,0,1,0,"[251,18,149,161,252,110,236,204,276,204,259,130,119,150,267,66,227,89,137,98]",11,4,1,0,0,0,21,21,26,1,,,,,,,,,,,,,,,,,,,,,,,
,,,,,,,,,,,,,,3,FF,,3,0.4188,,,,,,,,,,,,,,,,,,,,,,,,,,,,,60cc889d5bbfb9535a13f18f,60cc8a9c94786ad3a166c87c,2021-06-18_12h59.38.656,FlowerSimilarity_Experiment,2021.1.2,Win32,60.0024001,60cc862d586bafd4cd2fa98a,,,,,,-39,-93,1,0,0,response5disk,7,72,16,17,1,0,0,rectangle,16,17,1,0,0,1,4,"[251,18,149,161,252,110,236,204,276,204,259,130,119,150,267,66,227,89,137,98]",16,17,1,0,0,0,22,22,29,1,,,,,,,,,,,,,,,,,,,,,,,
,,,,,,,,,,,,,,1,FF,,5,0.9337,,,,,,,,,,,,,,,,,,,,,,,,,,,,,60cc889d5bbfb9535a13f18f,60cc8a9c94786ad3a166c87c,2021-06-18_12h59.38.656,FlowerSimilarity_Experiment,2021.1.2,Win32,60.0024001,60cc862d586bafd4cd2fa98a,,,,,,89,-38,1,0,0,response3disk,2,73,3,10,1,0,0,rectangle,3,10,1,0,0,1,6,"[251,18,149,161,252,110,236,204,276,204,259,130,119,150,267,66,227,89,137,98]",3,10,1,0,0,0,23,23,31,1,,,,,,,,,,,,,,,,,,,,,,,
,,,,,,,,,,,,,,2,FF,,4,0.5353,,,,,,,,,,,,,,,,,,,,,,,,,,,,,60cc889d5bbfb9535a13f18f,60cc8a9c94786ad3a166c87c,2021-06-18_12h59.38.656,FlowerSimilarity_Experiment,2021.1.2,Win32,60.0024001,60cc862d586bafd4cd2fa98a,,,,,,55,-106,1,0,0,response3disk,2,74,15,-12,1,0,0,rectangle,15,-12,1,0,0,1,2,"[251,18,149,161,252,110,236,204,276,204,259,130,119,150,267,66,227,89,137,98]",15,-12,1,0,0,0,24,24,44,1,,,,,,,,,,,,,,,,,,,,,,,
,,,,,,,,,,,,,,5,FF,,5,0.7019,,,,,,,,,,,,,,,,,,,,,,,,,,,,,60cc889d5bbfb9535a13f18f,60cc8a9c94786ad3a166c87c,2021-06-18_12h59.38.656,FlowerSimilarity_Experiment,2021.1.2,Win32,60.0024001,60cc862d586bafd4cd2fa98a,,,,,,110,-51,1,0,0,response3disk,7,75,18,7,1,0,0,rectangle,18,7,1,0,0,1,0,"[251,18,149,161,252,110,236,204,276,204,259,130,119,150,267,66,227,89,137,98]",18,7,1,0,0,0,25,25,8,1,,,,,,,,,,,,,,,,,,,,,,,
,,,,,,,,,,,,,,2,FF,,7,0.3854,,,,,,,,,,,,,,,,,,,,,,,,,,,,,60cc889d5bbfb9535a13f18f,60cc8a9c94786ad3a166c87c,2021-06-18_12h59.38.656,FlowerSimilarity_Experiment,2021.1.2,Win32,60.0024001,60cc862d586bafd4cd2fa98a,,,,,,45,98,1,0,0,response1disk,6,76,3,8,1,0,0,rectangle,3,8,1,0,0,1,7,"[251,18,149,161,252,110,236,204,276,204,259,130,119,150,267,66,227,89,137,98]",3,8,1,0,0,0,26,26,13,1,,,,,,,,,,,,,,,,,,,,,,,
,,,,,,,,,,,,,,1,FF,,7,0.8163,,,,,,,,,,,,,,,,,,,,,,,,,,,,,60cc889d5bbfb9535a13f18f,60cc8a9c94786ad3a166c87c,2021-06-18_12h59.38.656,FlowerSimilarity_Experiment,2021.1.2,Win32,60.0024001,60cc862d586bafd4cd2fa98a,,,,,,70,129,1,0,0,response1disk,4,77,11,1,1,0,0,rectangle,11,1,1,0,0,1,6,"[251,18,149,161,252,110,236,204,276,204,259,130,119,150,267,66,227,89,137,98]",11,1,1,0,0,0,27,27,27,1,,,,,,,,,,,,,,,,,,,,,,,
,,,,,,,,,,,,,,5,FF,,5,0.5183,,,,,,,,,,,,,,,,,,,,,,,,,,,,,60cc889d5bbfb9535a13f18f,60cc8a9c94786ad3a166c87c,2021-06-18_12h59.38.656,FlowerSimilarity_Experiment,2021.1.2,Win32,60.0024001,60cc862d586bafd4cd2fa98a,,,,,,121,-60,1,0,0,response3disk,6,78,-9,2,1,0,0,rectangle,-9,2,1,0,0,1,7,"[251,18,149,161,252,110,236,204,276,204,259,130,119,150,267,66,227,89,137,98]",-9,2,1,0,0,0,28,28,17,1,,,,,,,,,,,,,,,,,,,,,,,
,,,,,,,,,,,,,,4,FF,,3,0.5354,,,,,,,,,,,,,,,,,,,,,,,,,,,,,60cc889d5bbfb9535a13f18f,60cc8a9c94786ad3a166c87c,2021-06-18_12h59.38.656,FlowerSimilarity_Experiment,2021.1.2,Win32,60.0024001,60cc862d586bafd4cd2fa98a,,,,,,-35,-122,1,0,0,response5disk,7,79,-12,-2,1,0,0,rectangle,-12,-2,1,0,0,1,0,"[251,18,149,161,252,110,236,204,276,204,259,130,119,150,267,66,227,89,137,98]",-12,-2,1,0,0,0,29,29,16,1,,,,,,,,,,,,,,,,,,,,,,,
,,,,,,,,,,,,,,2,FF,,3,0.4334,,,,,,,,,,,,,,,,,,,,,,,,,,,,,60cc889d5bbfb9535a13f18f,60cc8a9c94786ad3a166c87c,2021-06-18_12h59.38.656,FlowerSimilarity_Experiment,2021.1.2,Win32,60.0024001,60cc862d586bafd4cd2fa98a,,,,,,-50,-101,1,0,0,response5disk,3,80,-10,-10,1,0,0,rectangle,-10,-10,1,0,0,1,1,"[251,18,149,161,252,110,236,204,276,204,259,130,119,150,267,66,227,89,137,98]",-10,-10,1,0,0,0,30,30,36,1,,,,,,,,,,,,,,,,,,,,,,,
,,,,,,,,,,,,,,7,FF,,4,2.3349,,,,,,,,,,,,,,,,,,,,,,,,,,,,,60cc889d5bbfb9535a13f18f,60cc8a9c94786ad3a166c87c,2021-06-18_12h59.38.656,FlowerSimilarity_Experiment,2021.1.2,Win32,60.0024001,60cc862d586bafd4cd2fa98a,,,,,,38,-120,1,0,0,response3disk,4,81,15,-15,1,0,0,rectangle,15,-15,1,0,0,1,4,"[251,18,149,161,252,110,236,204,276,204,259,130,119,150,267,66,227,89,137,98]",15,-15,1,0,0,0,31,31,48,1,,,,,,,,,,,,,,,,,,,,,,,
,,,,,,,,,,,,,,5,FF,,7,0.7669,,,,,,,,,,,,,,,,,,,,,,,,,,,,,60cc889d5bbfb9535a13f18f,60cc8a9c94786ad3a166c87c,2021-06-18_12h59.38.656,FlowerSimilarity_Experiment,2021.1.2,Win32,60.0024001,60cc862d586bafd4cd2fa98a,,,,,,66,117,1,0,0,response1disk,3,82,-1,-9,1,0,0,rectangle,-1,-9,1,0,0,1,6,"[251,18,149,161,252,110,236,204,276,204,259,130,119,150,267,66,227,89,137,98]",-1,-9,1,0,0,0,32,32,24,1,,,,,,,,,,,,,,,,,,,,,,,
,,,,,,,,,,,,,,3,FF,,5,0.6668,,,,,,,,,,,,,,,,,,,,,,,,,,,,,60cc889d5bbfb9535a13f18f,60cc8a9c94786ad3a166c87c,2021-06-18_12h59.38.656,FlowerSimilarity_Experiment,2021.1.2,Win32,60.0024001,60cc862d586bafd4cd2fa98a,,,,,,100,-58,1,0,0,response3disk,6,83,-11,-2,1,0,0,rectangle,-11,-2,1,0,0,1,0,"[251,18,149,161,252,110,236,204,276,204,259,130,119,150,267,66,227,89,137,98]",-11,-2,1,0,0,0,33,33,20,1,,,,,,,,,,,,,,,,,,,,,,,
,,,,,,,,,,,,,,6,FF,,7,0.469,,,,,,,,,,,,,,,,,,,,,,,,,,,,,60cc889d5bbfb9535a13f18f,60cc8a9c94786ad3a166c87c,2021-06-18_12h59.38.656,FlowerSimilarity_Experiment,2021.1.2,Win32,60.0024001,60cc862d586bafd4cd2fa98a,,,,,,59,99,1,0,0,response1disk,6,84,10,1,1,0,0,rectangle,10,1,1,0,0,1,0,"[251,18,149,161,252,110,236,204,276,204,259,130,119,150,267,66,227,89,137,98]",10,1,1,0,0,0,34,34,46,1,,,,,,,,,,,,,,,,,,,,,,,
,,,,,,,,,,,,,,2,FF,,4,0.5667,,,,,,,,,,,,,,,,,,,,,,,,,,,,,60cc889d5bbfb9535a13f18f,60cc8a9c94786ad3a166c87c,2021-06-18_12h59.38.656,FlowerSimilarity_Experiment,2021.1.2,Win32,60.0024001,60cc862d586bafd4cd2fa98a,,,,,,53,-127,1,0,0,response3disk,1,85,-2,1,1,0,0,rectangle,-2,1,1,0,0,1,2,"[251,18,149,161,252,110,236,204,276,204,259,130,119,150,267,66,227,89,137,98]",-2,1,1,0,0,0,35,35,42,1,,,,,,,,,,,,,,,,,,,,,,,
,,,,,,,,,,,,,,4,FF,,7,0.6855,,,,,,,,,,,,,,,,,,,,,,,,,,,,,60cc889d5bbfb9535a13f18f,60cc8a9c94786ad3a166c87c,2021-06-18_12h59.38.656,FlowerSimilarity_Experiment,2021.1.2,Win32,60.0024001,60cc862d586bafd4cd2fa98a,,,,,,69,118,1,0,0,response1disk,2,86,-12,0,1,0,0,rectangle,-12,0,1,0,0,1,0,"[251,18,149,161,252,110,236,204,276,204,259,130,119,150,267,66,227,89,137,98]",-12,0,1,0,0,0,36,36,33,1,,,,,,,,,,,,,,,,,,,,,,,
,,,,,,,,,,,,,,7,FF,,7,0.9996,,,,,,,,,,,,,,,,,,,,,,,,,,,,,60cc889d5bbfb9535a13f18f,60cc8a9c94786ad3a166c87c,2021-06-18_12h59.38.656,FlowerSimilarity_Experiment,2021.1.2,Win32,60.0024001,60cc862d586bafd4cd2fa98a,,,,,,64,115,1,0,0,response1disk,2,87,13,-14,1,0,0,rectangle,13,-14,1,0,0,1,4,"[251,18,149,161,252,110,236,204,276,204,259,130,119,150,267,66,227,89,137,98]",13,-14,1,0,0,0,37,37,12,1,,,,,,,,,,,,,,,,,,,,,,,
,,,,,,,,,,,,,,6,FF,,3,0.6319,,,,,,,,,,,,,,,,,,,,,,,,,,,,,60cc889d5bbfb9535a13f18f,60cc8a9c94786ad3a166c87c,2021-06-18_12h59.38.656,FlowerSimilarity_Experiment,2021.1.2,Win32,60.0024001,60cc862d586bafd4cd2fa98a,,,,,,-38,-100,1,0,0,response5disk,1,88,10,17,1,0,0,rectangle,10,17,1,0,0,1,2,"[251,18,149,161,252,110,236,204,276,204,259,130,119,150,267,66,227,89,137,98]",10,17,1,0,0,0,38,38,39,1,,,,,,,,,,,,,,,,,,,,,,,
,,,,,,,,,,,,,,1,FF,,4,0.6831,,,,,,,,,,,,,,,,,,,,,,,,,,,,,60cc889d5bbfb9535a13f18f,60cc8a9c94786ad3a166c87c,2021-06-18_12h59.38.656,FlowerSimilarity_Experiment,2021.1.2,Win32,60.0024001,60cc862d586bafd4cd2fa98a,,,,,,61,-108,1,0,0,response3disk,7,89,16,-17,1,0,0,rectangle,-43,96,1,0,0,0,0,"[251,18,149,161,252,110,236,204,276,204,259,130,119,150,267,66,227,89,137,98]",2,0,1,0,0,0,39,39,43,1,response7disk_3,rectangle,,,,,,,,,,,,,,,,,,,,,
,,,,,,,,,,,,,,5,FF,,4,1.7195,,,,,,,,,,,,,,,,,,,,,,,,,,,,,60cc889d5bbfb9535a13f18f,60cc8a9c94786ad3a166c87c,2021-06-18_12h59.38.656,FlowerSimilarity_Experiment,2021.1.2,Win32,60.0024001,60cc862d586bafd4cd2fa98a,,,,,,71,-101,1,0,0,response3disk,5,90,0,3,1,0,0,rectangle,0,3,1,0,0,0,3,"[251,18,149,161,252,110,236,204,276,204,259,130,119,150,267,66,227,89,137,98]",0,3,1,0,0,0,40,40,22,1,,,,,,,,,,,,,,,,,,,,,,,
,,,,,,,,,,,,,,6,FF,,7,4.1023,,,,,,,,,,,,,,,,,,,,,,,,,,,,,60cc889d5bbfb9535a13f18f,60cc8a9c94786ad3a166c87c,2021-06-18_12h59.38.656,FlowerSimilarity_Experiment,2021.1.2,Win32,60.0024001,60cc862d586bafd4cd2fa98a,,,,,,58,104,1,0,0,response1disk,7,91,-3,-4,1,0,0,rectangle,-3,-4,1,0,0,0,6,"[251,18,149,161,252,110,236,204,276,204,259,130,119,150,267,66,227,89,137,98]",-3,-4,1,0,0,0,41,41,32,1,,,,,,,,,,,,,,,,,,,,,,,
,,,,,,,,,,,,,,4,FF,,3,0.8182,,,,,,,,,,,,,,,,,,,,,,,,,,,,,60cc889d5bbfb9535a13f18f,60cc8a9c94786ad3a166c87c,2021-06-18_12h59.38.656,FlowerSimilarity_Experiment,2021.1.2,Win32,60.0024001,60cc862d586bafd4cd2fa98a,,,,,,-50,-104,1,0,0,response5disk,3,92,-28,-18,1,0,0,rectangle,-28,-18,1,0,0,0,4,"[251,18,149,161,252,110,236,204,276,204,259,130,119,150,267,66,227,89,137,98]",-28,-18,1,0,0,0,42,42,34,1,,,,,,,,,,,,,,,,,,,,,,,
,,,,,,,,,,,,,,3,FF,,3,1.0967,,,,,,,,,,,,,,,,,,,,,,,,,,,,,60cc889d5bbfb9535a13f18f,60cc8a9c94786ad3a166c87c,2021-06-18_12h59.38.656,FlowerSimilarity_Experiment,2021.1.2,Win32,60.0024001,60cc862d586bafd4cd2fa98a,,,,,,-46,-109,1,0,0,response5disk,1,93,-17,-3,1,0,0,rectangle,-17,-3,1,0,0,0,0,"[251,18,149,161,252,110,236,204,276,204,259,130,119,150,267,66,227,89,137,98]",-17,-3,1,0,0,0,43,43,6,1,,,,,,,,,,,,,,,,,,,,,,,
,,,,,,,,,,,,,,7,FF,,4,1.0334,,,,,,,,,,,,,,,,,,,,,,,,,,,,,60cc889d5bbfb9535a13f18f,60cc8a9c94786ad3a166c87c,2021-06-18_12h59.38.656,FlowerSimilarity_Experiment,2021.1.2,Win32,60.0024001,60cc862d586bafd4cd2fa98a,,,,,,61,-124,1,0,0,response3disk,1,94,6,-9,1,0,0,rectangle,6,-9,1,0,0,0,2,"[251,18,149,161,252,110,236,204,276,204,259,130,119,150,267,66,227,89,137,98]",6,-9,1,0,0,0,44,44,4,1,,,,,,,,,,,,,,,,,,,,,,,
,,,,,,,,,,,,,,4,FF,,4,0.5854,,,,,,,,,,,,,,,,,,,,,,,,,,,,,60cc889d5bbfb9535a13f18f,60cc8a9c94786ad3a166c87c,2021-06-18_12h59.38.656,FlowerSimilarity_Experiment,2021.1.2,Win32,60.0024001,60cc862d586bafd4cd2fa98a,,,,,,55,-123,1,0,0,response3disk,6,95,6,-10,1,0,0,rectangle,6,-10,1,0,0,0,5,"[251,18,149,161,252,110,236,204,276,204,259,130,119,150,267,66,227,89,137,98]",6,-10,1,0,0,0,45,45,25,1,,,,,,,,,,,,,,,,,,,,,,,
,,,,,,,,,,,,,,5,FF,,6,0.8167,,,,,,,,,,,,,,,,,,,,,,,,,,,,,60cc889d5bbfb9535a13f18f,60cc8a9c94786ad3a166c87c,2021-06-18_12h59.38.656,FlowerSimilarity_Experiment,2021.1.2,Win32,60.0024001,60cc862d586bafd4cd2fa98a,,,,,,97,48,1,0,0,response1disk,2,96,-23,-16,1,0,0,rectangle,-23,-16,1,0,0,0,7,"[251,18,149,161,252,110,236,204,276,204,259,130,119,150,267,66,227,89,137,98]",-23,-16,1,0,0,0,46,46,28,1,,,,,,,,,,,,,,,,,,,,,,,
,,,,,,,,,,,,,,6,FF,,6,0.9504,,,,,,,,,,,,,,,,,,,,,,,,,,,,,60cc889d5bbfb9535a13f18f,60cc8a9c94786ad3a166c87c,2021-06-18_12h59.38.656,FlowerSimilarity_Experiment,2021.1.2,Win32,60.0024001,60cc862d586bafd4cd2fa98a,,,,,,104,26,1,0,0,response1disk,3,97,-35,-1,1,0,0,rectangle,-35,-1,1,0,0,0,0,"[251,18,149,161,252,110,236,204,276,204,259,130,119,150,267,66,227,89,137,98]",-35,-1,1,0,0,0,47,47,10,1,,,,,,,,,,,,,,,,,,,,,,,
,,,,,,,,,,,,,,5,FF,,3,0.7668,,,,,,,,,,,,,,,,,,,,,,,,,,,,,60cc889d5bbfb9535a13f18f,60cc8a9c94786ad3a166c87c,2021-06-18_12h59.38.656,FlowerSimilarity_Experiment,2021.1.2,Win32,60.0024001,60cc862d586bafd4cd2fa98a,,,,,,-34,-112,1,0,0,response5disk,4,98,-2,-6,1,0,0,rectangle,-92,-47,1,0,0,0,2,"[251,18,149,161,252,110,236,204,276,204,259,130,119,150,267,66,227,89,137,98]",2,-4,1,0,0,0,48,48,5,1,response5disk_3,rectangle,,,,,,,,,,,,,,,,,,,,,
,,,,,,,,,,,,,,,,,,,,,,,,,,,,,,,,,,,,,,,,,,,,,,,60cc889d5bbfb9535a13f18f,60cc8a9c94786ad3a166c87c,2021-06-18_12h59.38.656,FlowerSimilarity_Experiment,2021.1.2,Win32,60.0024001,60cc862d586bafd4cd2fa98a,,,,,,,,,,,,,,,,,,,,,,,,,,,,,,,,,,,,,,,,1,0,1,0,1,,,,,,,,,,,,,,,,
,,,,,,,,,,,,,,,,,,,,,,,,,,,,,,,,,,,,,,,,,,,,,,,60cc889d5bbfb9535a13f18f,60cc8a9c94786ad3a166c87c,2021-06-18_12h59.38.656,FlowerSimilarity_Experiment,2021.1.2,Win32,60.0024001,60cc862d586bafd4cd2fa98a,,,,,,,,,,,,,,,,,,,,,,,,,,,,,,,,,,,,,,,,,,,,,n,8.3973,y,3.5827,n,4.1496,colors and shapes,6.6326,2,3.9828,3,1.566,once or twice in the space of several months,16.1495,,2.6495
