key_resp.keys,key_resp.rt,key_resp_16.keys,key_resp_16.rt,key_resp_14.keys,key_resp_14.rt,key_resp_15.keys,key_resp_15.rt,key_resp_17.keys,key_resp_17.rt,key_resp_9.keys,key_resp_9.rt,key_resp_10.keys,key_resp_10.rt,Flower1,Ecc,Flower_2,similarity,response_time,mouse_5.x,mouse_5.y,mouse_5.leftButton,mouse_5.midButton,mouse_5.rightButton,mouse_5.clicked_name,mouse_10.x,mouse_10.y,mouse_10.leftButton,mouse_10.midButton,mouse_10.rightButton,mouse_10.clicked_name,mouse_7.x,mouse_7.y,mouse_7.leftButton,mouse_7.midButton,mouse_7.rightButton,catchnumberprac,mouse_6.x,mouse_6.y,mouse_6.leftButton,mouse_6.midButton,mouse_6.rightButton,duringprac.thisRepN,duringprac.thisTrialN,duringprac.thisN,duringprac.thisIndex,duringprac.ran,participant,session,date,expName,psychopyVersion,OS,frameRate,study_id,mouse_7.clicked_name,mouse_6.clicked_name,key_resp_22.keys,key_resp_22.rt,mouse.x,mouse.y,mouse.leftButton,mouse.midButton,mouse.rightButton,mouse.clicked_name,Flower2,trialnumber,mouse_2.x,mouse_2.y,mouse_2.leftButton,mouse_2.midButton,mouse_2.rightButton,mouse_2.clicked_name,mouse_3.x,mouse_3.y,mouse_3.leftButton,mouse_3.midButton,mouse_3.rightButton,catchresponse,catchnumber,catchtrialorder,mouse_11.x,mouse_11.y,mouse_11.leftButton,mouse_11.midButton,mouse_11.rightButton,trials_2.thisRepN,trials_2.thisTrialN,trials_2.thisN,trials_2.thisIndex,trials_2.ran,mouse_3.clicked_name,mouse_11.clicked_name,trials_3.thisRepN,trials_3.thisTrialN,trials_3.thisN,trials_3.thisIndex,trials_3.ran,answer1,rt1,answer2,rt2,answer3,rt3,answer4,rt4,answer5,rt5,answer6,rt6,answer8,rt8,answer7,rt7
space,5.0468,space,50.6379,space,15.2755,space,37.9695,space,13.2303,space,7.725,space,10.6611,1,FF,1,7,2.6325,63,134,1,0,0,response1disk_5,-7,9,1,0,0,rectangle_8,-7,9,1,0,0,2,-7,9,1,0,0,0,0,0,2,1,60cc4e2f49b28d1b1fb0076a,60cc911c317f62aa9aa2f91b,2021-06-18_13h27.19.570,FlowerSimilarity_Experiment,2021.1.2,Win32,60.10699044,60cc862d586bafd4cd2fa98a,,,,,,,,,,,,,,,,,,,,,,,,,,,,,,,,,,,,,,,,,,,,,,,,,,,,,,,,,,,
,,,,,,,,,,,,,,4,FF,4,7,4.3376,61,115,1,0,0,response1disk_5,-8,-6,1,0,0,rectangle_8,-122,-47,1,0,0,2,12,0,1,0,0,0,1,1,4,1,60cc4e2f49b28d1b1fb0076a,60cc911c317f62aa9aa2f91b,2021-06-18_13h27.19.570,FlowerSimilarity_Experiment,2021.1.2,Win32,60.10699044,60cc862d586bafd4cd2fa98a,response5disk_7,rectangle_4,,,,,,,,,,,,,,,,,,,,,,,,,,,,,,,,,,,,,,,,,,,,,,,,,,,,,,,,,
,,,,,,,,,,,,,,6,FF,5,3,4.612,-46,-143,1,0,0,response5disk_5,-19,1,1,0,0,rectangle_8,-19,1,1,0,0,2,-19,1,1,0,0,0,2,2,0,1,60cc4e2f49b28d1b1fb0076a,60cc911c317f62aa9aa2f91b,2021-06-18_13h27.19.570,FlowerSimilarity_Experiment,2021.1.2,Win32,60.10699044,60cc862d586bafd4cd2fa98a,,,,,,,,,,,,,,,,,,,,,,,,,,,,,,,,,,,,,,,,,,,,,,,,,,,,,,,,,,,
,,,,,,,,,,,,,,4,FF,6,3,2.5685,-54,-115,1,0,0,response5disk_5,13,-2,1,0,0,rectangle_8,13,-2,1,0,0,2,13,-2,1,0,0,0,3,3,5,1,60cc4e2f49b28d1b1fb0076a,60cc911c317f62aa9aa2f91b,2021-06-18_13h27.19.570,FlowerSimilarity_Experiment,2021.1.2,Win32,60.10699044,60cc862d586bafd4cd2fa98a,,,,,,,,,,,,,,,,,,,,,,,,,,,,,,,,,,,,,,,,,,,,,,,,,,,,,,,,,,,
,,,,,,,,,,,,,,5,FF,6,4,2.2217,50,-115,1,0,0,response3disk_5,-17,1,1,0,0,rectangle_8,-17,1,1,0,0,2,-17,1,1,0,0,0,4,4,6,1,60cc4e2f49b28d1b1fb0076a,60cc911c317f62aa9aa2f91b,2021-06-18_13h27.19.570,FlowerSimilarity_Experiment,2021.1.2,Win32,60.10699044,60cc862d586bafd4cd2fa98a,,,,,,,,,,,,,,,,,,,,,,,,,,,,,,,,,,,,,,,,,,,,,,,,,,,,,,,,,,,
,,,,,,,,,,,,,,3,FF,3,7,1.5609,76,139,1,0,0,response1disk_5,-2,2,1,0,0,rectangle_8,-139,-64,1,0,0,2,-20,6,1,0,0,0,5,5,3,1,60cc4e2f49b28d1b1fb0076a,60cc911c317f62aa9aa2f91b,2021-06-18_13h27.19.570,FlowerSimilarity_Experiment,2021.1.2,Win32,60.10699044,60cc862d586bafd4cd2fa98a,response5disk_7,rectangle_4,,,,,,,,,,,,,,,,,,,,,,,,,,,,,,,,,,,,,,,,,,,,,,,,,,,,,,,,,
,,,,,,,,,,,,,,4,FF,3,3,3.2672,-51,-146,1,0,0,response5disk_5,-26,9,1,0,0,rectangle_8,-26,9,1,0,0,2,-26,9,1,0,0,0,6,6,1,1,60cc4e2f49b28d1b1fb0076a,60cc911c317f62aa9aa2f91b,2021-06-18_13h27.19.570,FlowerSimilarity_Experiment,2021.1.2,Win32,60.10699044,60cc862d586bafd4cd2fa98a,,,,,,,,,,,,,,,,,,,,,,,,,,,,,,,,,,,,,,,,,,,,,,,,,,,,,,,,,,,
,,,,,,,,,,,,,,1,FF,,5,3.1477,,,,,,,,,,,,,,,,,,,,,,,,,,,,,60cc4e2f49b28d1b1fb0076a,60cc911c317f62aa9aa2f91b,2021-06-18_13h27.19.570,FlowerSimilarity_Experiment,2021.1.2,Win32,60.10699044,60cc862d586bafd4cd2fa98a,,,space,5.0915,133,-65,1,0,0,response3disk,6,1,-14,9,1,0,0,rectangle,-14,9,1,0,0,,6,"[85,154,171,203,219,0,51,40,15,152,20,132,122,304,261,41,6,146,137,43]",-14,9,1,0,0,0,0,0,30,1,,,,,,,,,,,,,,,,,,,,,,,
,,,,,,,,,,,,,,5,FF,,2,2.2502,,,,,,,,,,,,,,,,,,,,,,,,,,,,,60cc4e2f49b28d1b1fb0076a,60cc911c317f62aa9aa2f91b,2021-06-18_13h27.19.570,FlowerSimilarity_Experiment,2021.1.2,Win32,60.10699044,60cc862d586bafd4cd2fa98a,,,,,-127,-50,1,0,0,response5disk,1,2,-8,13,1,0,0,rectangle,-8,13,1,0,0,,1,"[85,154,171,203,219,0,51,40,15,152,20,132,122,304,261,41,6,146,137,43]",-8,13,1,0,0,0,1,1,45,1,,,,,,,,,,,,,,,,,,,,,,,
,,,,,,,,,,,,,,6,FF,,3,0.9997,,,,,,,,,,,,,,,,,,,,,,,,,,,,,60cc4e2f49b28d1b1fb0076a,60cc911c317f62aa9aa2f91b,2021-06-18_13h27.19.570,FlowerSimilarity_Experiment,2021.1.2,Win32,60.10699044,60cc862d586bafd4cd2fa98a,,,,,-73,-111,1,0,0,response5disk,5,3,-1,10,1,0,0,rectangle,-1,10,1,0,0,,5,"[85,154,171,203,219,0,51,40,15,152,20,132,122,304,261,41,6,146,137,43]",-1,10,1,0,0,0,2,2,14,1,,,,,,,,,,,,,,,,,,,,,,,
,,,,,,,,,,,,,,2,FF,,3,2.0037,,,,,,,,,,,,,,,,,,,,,,,,,,,,,60cc4e2f49b28d1b1fb0076a,60cc911c317f62aa9aa2f91b,2021-06-18_13h27.19.570,FlowerSimilarity_Experiment,2021.1.2,Win32,60.10699044,60cc862d586bafd4cd2fa98a,,,,,-67,-124,1,0,0,response5disk,7,4,28,5,1,0,0,rectangle,28,5,1,0,0,,5,"[85,154,171,203,219,0,51,40,15,152,20,132,122,304,261,41,6,146,137,43]",28,5,1,0,0,0,3,3,15,1,,,,,,,,,,,,,,,,,,,,,,,
,,,,,,,,,,,,,,3,FF,,5,3.0309,,,,,,,,,,,,,,,,,,,,,,,,,,,,,60cc4e2f49b28d1b1fb0076a,60cc911c317f62aa9aa2f91b,2021-06-18_13h27.19.570,FlowerSimilarity_Experiment,2021.1.2,Win32,60.10699044,60cc862d586bafd4cd2fa98a,,,,,126,-36,1,0,0,response3disk,2,5,19,7,1,0,0,rectangle,19,7,1,0,0,,5,"[85,154,171,203,219,0,51,40,15,152,20,132,122,304,261,41,6,146,137,43]",19,7,1,0,0,0,4,4,35,1,,,,,,,,,,,,,,,,,,,,,,,
,,,,,,,,,,,,,,7,FF,,7,1.1505,,,,,,,,,,,,,,,,,,,,,,,,,,,,,60cc4e2f49b28d1b1fb0076a,60cc911c317f62aa9aa2f91b,2021-06-18_13h27.19.570,FlowerSimilarity_Experiment,2021.1.2,Win32,60.10699044,60cc862d586bafd4cd2fa98a,,,,,53,142,1,0,0,response1disk,3,6,-2,1,1,0,0,rectangle,-109,52,1,0,0,1,1,"[85,154,171,203,219,0,51,40,15,152,20,132,122,304,261,41,6,146,137,43]",-21,6,1,0,0,0,5,5,9,1,response7disk_3,rectangle,,,,,,,,,,,,,,,,,,,,,
,,,,,,,,,,,,,,3,FF,,7,0.8829,,,,,,,,,,,,,,,,,,,,,,,,,,,,,60cc4e2f49b28d1b1fb0076a,60cc911c317f62aa9aa2f91b,2021-06-18_13h27.19.570,FlowerSimilarity_Experiment,2021.1.2,Win32,60.10699044,60cc862d586bafd4cd2fa98a,,,,,41,162,1,0,0,response1disk,3,7,-5,-5,1,0,0,rectangle,-5,-5,1,0,0,1,0,"[85,154,171,203,219,0,51,40,15,152,20,132,122,304,261,41,6,146,137,43]",-5,-5,1,0,0,0,6,6,1,1,,,,,,,,,,,,,,,,,,,,,,,
,,,,,,,,,,,,,,6,FF,,1,1.8528,,,,,,,,,,,,,,,,,,,,,,,,,,,,,60cc4e2f49b28d1b1fb0076a,60cc911c317f62aa9aa2f91b,2021-06-18_13h27.19.570,FlowerSimilarity_Experiment,2021.1.2,Win32,60.10699044,60cc862d586bafd4cd2fa98a,,,,,-127,51,1,0,0,response7disk,2,8,-17,2,1,0,0,rectangle,-17,2,1,0,0,1,7,"[85,154,171,203,219,0,51,40,15,152,20,132,122,304,261,41,6,146,137,43]",-17,2,1,0,0,0,7,7,11,1,,,,,,,,,,,,,,,,,,,,,,,
,,,,,,,,,,,,,,1,FF,,1,1.0364,,,,,,,,,,,,,,,,,,,,,,,,,,,,,60cc4e2f49b28d1b1fb0076a,60cc911c317f62aa9aa2f91b,2021-06-18_13h27.19.570,FlowerSimilarity_Experiment,2021.1.2,Win32,60.10699044,60cc862d586bafd4cd2fa98a,,,,,-131,56,1,0,0,response7disk,3,9,9,5,1,0,0,rectangle,9,5,1,0,0,1,2,"[85,154,171,203,219,0,51,40,15,152,20,132,122,304,261,41,6,146,137,43]",9,5,1,0,0,0,8,8,41,1,,,,,,,,,,,,,,,,,,,,,,,
,,,,,,,,,,,,,,2,FF,,1,3.5713,,,,,,,,,,,,,,,,,,,,,,,,,,,,,60cc4e2f49b28d1b1fb0076a,60cc911c317f62aa9aa2f91b,2021-06-18_13h27.19.570,FlowerSimilarity_Experiment,2021.1.2,Win32,60.10699044,60cc862d586bafd4cd2fa98a,,,,,-140,65,1,0,0,response7disk,4,10,-7,5,1,0,0,rectangle,-7,5,1,0,0,1,6,"[85,154,171,203,219,0,51,40,15,152,20,132,122,304,261,41,6,146,137,43]",-7,5,1,0,0,0,9,9,38,1,,,,,,,,,,,,,,,,,,,,,,,
,,,,,,,,,,,,,,7,FF,,2,2.7378,,,,,,,,,,,,,,,,,,,,,,,,,,,,,60cc4e2f49b28d1b1fb0076a,60cc911c317f62aa9aa2f91b,2021-06-18_13h27.19.570,FlowerSimilarity_Experiment,2021.1.2,Win32,60.10699044,60cc862d586bafd4cd2fa98a,,,,,-118,-50,1,0,0,response5disk,5,11,-9,-6,1,0,0,rectangle,-9,-6,1,0,0,1,5,"[85,154,171,203,219,0,51,40,15,152,20,132,122,304,261,41,6,146,137,43]",-9,-6,1,0,0,0,10,10,40,1,,,,,,,,,,,,,,,,,,,,,,,
,,,,,,,,,,,,,,2,FF,,2,1.0031,,,,,,,,,,,,,,,,,,,,,,,,,,,,,60cc4e2f49b28d1b1fb0076a,60cc911c317f62aa9aa2f91b,2021-06-18_13h27.19.570,FlowerSimilarity_Experiment,2021.1.2,Win32,60.10699044,60cc862d586bafd4cd2fa98a,,,,,-111,-62,1,0,0,response5disk,5,12,-12,-5,1,0,0,rectangle,-12,-5,1,0,0,1,3,"[85,154,171,203,219,0,51,40,15,152,20,132,122,304,261,41,6,146,137,43]",-12,-5,1,0,0,0,11,11,19,1,,,,,,,,,,,,,,,,,,,,,,,
,,,,,,,,,,,,,,7,FF,,7,1.0343,,,,,,,,,,,,,,,,,,,,,,,,,,,,,60cc4e2f49b28d1b1fb0076a,60cc911c317f62aa9aa2f91b,2021-06-18_13h27.19.570,FlowerSimilarity_Experiment,2021.1.2,Win32,60.10699044,60cc862d586bafd4cd2fa98a,,,,,35,135,1,0,0,response1disk,7,13,0,-6,1,0,0,rectangle,0,-6,1,0,0,1,1,"[85,154,171,203,219,0,51,40,15,152,20,132,122,304,261,41,6,146,137,43]",0,-6,1,0,0,0,12,12,3,1,,,,,,,,,,,,,,,,,,,,,,,
,,,,,,,,,,,,,,4,FF,,1,1.5187,,,,,,,,,,,,,,,,,,,,,,,,,,,,,60cc4e2f49b28d1b1fb0076a,60cc911c317f62aa9aa2f91b,2021-06-18_13h27.19.570,FlowerSimilarity_Experiment,2021.1.2,Win32,60.10699044,60cc862d586bafd4cd2fa98a,,,,,-112,52,1,0,0,response7disk,5,14,-19,-9,1,0,0,rectangle,-19,-9,1,0,0,1,1,"[85,154,171,203,219,0,51,40,15,152,20,132,122,304,261,41,6,146,137,43]",-19,-9,1,0,0,0,13,13,18,1,,,,,,,,,,,,,,,,,,,,,,,
,,,,,,,,,,,,,,7,FF,,0,1.1324,,,,,,,,,,,,,,,,,,,,,,,,,,,,,60cc4e2f49b28d1b1fb0076a,60cc911c317f62aa9aa2f91b,2021-06-18_13h27.19.570,FlowerSimilarity_Experiment,2021.1.2,Win32,60.10699044,60cc862d586bafd4cd2fa98a,,,,,-68,120,1,0,0,response7disk,6,15,-29,-1,1,0,0,rectangle,115,46,1,0,0,6,6,"[85,154,171,203,219,0,51,40,15,152,20,132,122,304,261,41,6,146,137,43]",8,0,1,0,0,0,14,14,21,1,response1disk_3,rectangle,,,,,,,,,,,,,,,,,,,,,
,,,,,,,,,,,,,,1,FF,,7,0.949,,,,,,,,,,,,,,,,,,,,,,,,,,,,,60cc4e2f49b28d1b1fb0076a,60cc911c317f62aa9aa2f91b,2021-06-18_13h27.19.570,FlowerSimilarity_Experiment,2021.1.2,Win32,60.10699044,60cc862d586bafd4cd2fa98a,,,,,68,140,1,0,0,response1disk,1,16,1,-7,1,0,0,rectangle,1,-7,1,0,0,6,7,"[85,154,171,203,219,0,51,40,15,152,20,132,122,304,261,41,6,146,137,43]",1,-7,1,0,0,0,15,15,7,1,,,,,,,,,,,,,,,,,,,,,,,
,,,,,,,,,,,,,,6,FF,,0,1.4984,,,,,,,,,,,,,,,,,,,,,,,,,,,,,60cc4e2f49b28d1b1fb0076a,60cc911c317f62aa9aa2f91b,2021-06-18_13h27.19.570,FlowerSimilarity_Experiment,2021.1.2,Win32,60.10699044,60cc862d586bafd4cd2fa98a,,,,,-73,122,1,0,0,response7disk,4,17,2,7,1,0,0,rectangle,2,7,1,0,0,6,1,"[85,154,171,203,219,0,51,40,15,152,20,132,122,304,261,41,6,146,137,43]",2,7,1,0,0,0,16,16,23,1,,,,,,,,,,,,,,,,,,,,,,,
,,,,,,,,,,,,,,3,FF,,5,1.7987,,,,,,,,,,,,,,,,,,,,,,,,,,,,,60cc4e2f49b28d1b1fb0076a,60cc911c317f62aa9aa2f91b,2021-06-18_13h27.19.570,FlowerSimilarity_Experiment,2021.1.2,Win32,60.10699044,60cc862d586bafd4cd2fa98a,,,,,119,-73,1,0,0,response3disk,5,18,-2,-6,1,0,0,rectangle,-2,-6,1,0,0,6,3,"[85,154,171,203,219,0,51,40,15,152,20,132,122,304,261,41,6,146,137,43]",-2,-6,1,0,0,0,17,17,47,1,,,,,,,,,,,,,,,,,,,,,,,
,,,,,,,,,,,,,,4,FF,,0,1.0984,,,,,,,,,,,,,,,,,,,,,,,,,,,,,60cc4e2f49b28d1b1fb0076a,60cc911c317f62aa9aa2f91b,2021-06-18_13h27.19.570,FlowerSimilarity_Experiment,2021.1.2,Win32,60.10699044,60cc862d586bafd4cd2fa98a,,,,,-69,110,1,0,0,response7disk,1,19,-20,-2,1,0,0,rectangle,-20,-2,1,0,0,6,5,"[85,154,171,203,219,0,51,40,15,152,20,132,122,304,261,41,6,146,137,43]",-20,-2,1,0,0,0,18,18,0,1,,,,,,,,,,,,,,,,,,,,,,,
,,,,,,,,,,,,,,4,FF,,7,0.7687,,,,,,,,,,,,,,,,,,,,,,,,,,,,,60cc4e2f49b28d1b1fb0076a,60cc911c317f62aa9aa2f91b,2021-06-18_13h27.19.570,FlowerSimilarity_Experiment,2021.1.2,Win32,60.10699044,60cc862d586bafd4cd2fa98a,,,,,41,141,1,0,0,response1disk,4,20,-2,0,1,0,0,rectangle,-123,63,1,0,0,1,1,"[85,154,171,203,219,0,51,40,15,152,20,132,122,304,261,41,6,146,137,43]",-34,2,1,0,0,0,19,19,37,1,response7disk_3,rectangle,,,,,,,,,,,,,,,,,,,,,
,,,,,,,,,,,,,,1,FF,,1,1.2861,,,,,,,,,,,,,,,,,,,,,,,,,,,,,60cc4e2f49b28d1b1fb0076a,60cc911c317f62aa9aa2f91b,2021-06-18_13h27.19.570,FlowerSimilarity_Experiment,2021.1.2,Win32,60.10699044,60cc862d586bafd4cd2fa98a,,,,,-121,50,1,0,0,response7disk,5,21,-43,2,1,0,0,rectangle,-43,2,1,0,0,1,0,"[85,154,171,203,219,0,51,40,15,152,20,132,122,304,261,41,6,146,137,43]",-43,2,1,0,0,0,20,20,2,1,,,,,,,,,,,,,,,,,,,,,,,
,,,,,,,,,,,,,,3,FF,,0,1.1149,,,,,,,,,,,,,,,,,,,,,,,,,,,,,60cc4e2f49b28d1b1fb0076a,60cc911c317f62aa9aa2f91b,2021-06-18_13h27.19.570,FlowerSimilarity_Experiment,2021.1.2,Win32,60.10699044,60cc862d586bafd4cd2fa98a,,,,,-62,118,1,0,0,response7disk,4,22,13,2,1,0,0,rectangle,13,2,1,0,0,1,0,"[85,154,171,203,219,0,51,40,15,152,20,132,122,304,261,41,6,146,137,43]",13,2,1,0,0,0,21,21,26,1,,,,,,,,,,,,,,,,,,,,,,,
,,,,,,,,,,,,,,3,FF,,5,1.052,,,,,,,,,,,,,,,,,,,,,,,,,,,,,60cc4e2f49b28d1b1fb0076a,60cc911c317f62aa9aa2f91b,2021-06-18_13h27.19.570,FlowerSimilarity_Experiment,2021.1.2,Win32,60.10699044,60cc862d586bafd4cd2fa98a,,,,,110,-45,1,0,0,response3disk,7,23,18,-10,1,0,0,rectangle,18,-10,1,0,0,1,4,"[85,154,171,203,219,0,51,40,15,152,20,132,122,304,261,41,6,146,137,43]",18,-10,1,0,0,0,22,22,29,1,,,,,,,,,,,,,,,,,,,,,,,
,,,,,,,,,,,,,,1,FF,,0,0.8685,,,,,,,,,,,,,,,,,,,,,,,,,,,,,60cc4e2f49b28d1b1fb0076a,60cc911c317f62aa9aa2f91b,2021-06-18_13h27.19.570,FlowerSimilarity_Experiment,2021.1.2,Win32,60.10699044,60cc862d586bafd4cd2fa98a,,,,,-78,114,1,0,0,response7disk,2,24,-8,6,1,0,0,rectangle,-8,6,1,0,0,1,6,"[85,154,171,203,219,0,51,40,15,152,20,132,122,304,261,41,6,146,137,43]",-8,6,1,0,0,0,23,23,31,1,,,,,,,,,,,,,,,,,,,,,,,
,,,,,,,,,,,,,,2,FF,,7,0.8184,,,,,,,,,,,,,,,,,,,,,,,,,,,,,60cc4e2f49b28d1b1fb0076a,60cc911c317f62aa9aa2f91b,2021-06-18_13h27.19.570,FlowerSimilarity_Experiment,2021.1.2,Win32,60.10699044,60cc862d586bafd4cd2fa98a,,,,,52,132,1,0,0,response1disk,2,25,26,-7,1,0,0,rectangle,26,-7,1,0,0,1,2,"[85,154,171,203,219,0,51,40,15,152,20,132,122,304,261,41,6,146,137,43]",26,-7,1,0,0,0,24,24,44,1,,,,,,,,,,,,,,,,,,,,,,,
,,,,,,,,,,,,,,5,FF,,6,1.5511,,,,,,,,,,,,,,,,,,,,,,,,,,,,,60cc4e2f49b28d1b1fb0076a,60cc911c317f62aa9aa2f91b,2021-06-18_13h27.19.570,FlowerSimilarity_Experiment,2021.1.2,Win32,60.10699044,60cc862d586bafd4cd2fa98a,,,,,139,49,1,0,0,response1disk,7,26,-5,-2,1,0,0,rectangle,-5,-2,1,0,0,1,0,"[85,154,171,203,219,0,51,40,15,152,20,132,122,304,261,41,6,146,137,43]",-5,-2,1,0,0,0,25,25,8,1,,,,,,,,,,,,,,,,,,,,,,,
,,,,,,,,,,,,,,2,FF,,2,2.3368,,,,,,,,,,,,,,,,,,,,,,,,,,,,,60cc4e2f49b28d1b1fb0076a,60cc911c317f62aa9aa2f91b,2021-06-18_13h27.19.570,FlowerSimilarity_Experiment,2021.1.2,Win32,60.10699044,60cc862d586bafd4cd2fa98a,,,,,-122,-48,1,0,0,response5disk,6,27,12,3,1,0,0,rectangle,12,3,1,0,0,1,7,"[85,154,171,203,219,0,51,40,15,152,20,132,122,304,261,41,6,146,137,43]",12,3,1,0,0,0,26,26,13,1,,,,,,,,,,,,,,,,,,,,,,,
,,,,,,,,,,,,,,1,FF,,0,1.3364,,,,,,,,,,,,,,,,,,,,,,,,,,,,,60cc4e2f49b28d1b1fb0076a,60cc911c317f62aa9aa2f91b,2021-06-18_13h27.19.570,FlowerSimilarity_Experiment,2021.1.2,Win32,60.10699044,60cc862d586bafd4cd2fa98a,,,,,-74,115,1,0,0,response7disk,4,28,-10,-1,1,0,0,rectangle,-10,-1,1,0,0,1,6,"[85,154,171,203,219,0,51,40,15,152,20,132,122,304,261,41,6,146,137,43]",-10,-1,1,0,0,0,27,27,27,1,,,,,,,,,,,,,,,,,,,,,,,
,,,,,,,,,,,,,,5,FF,,0,0.8351,,,,,,,,,,,,,,,,,,,,,,,,,,,,,60cc4e2f49b28d1b1fb0076a,60cc911c317f62aa9aa2f91b,2021-06-18_13h27.19.570,FlowerSimilarity_Experiment,2021.1.2,Win32,60.10699044,60cc862d586bafd4cd2fa98a,,,,,-72,121,1,0,0,response7disk,6,29,-20,-4,1,0,0,rectangle,-20,-4,1,0,0,1,7,"[85,154,171,203,219,0,51,40,15,152,20,132,122,304,261,41,6,146,137,43]",-20,-4,1,0,0,0,28,28,17,1,,,,,,,,,,,,,,,,,,,,,,,
,,,,,,,,,,,,,,4,FF,,6,1.2822,,,,,,,,,,,,,,,,,,,,,,,,,,,,,60cc4e2f49b28d1b1fb0076a,60cc911c317f62aa9aa2f91b,2021-06-18_13h27.19.570,FlowerSimilarity_Experiment,2021.1.2,Win32,60.10699044,60cc862d586bafd4cd2fa98a,,,,,112,55,1,0,0,response1disk,7,30,-25,7,1,0,0,rectangle,-25,7,1,0,0,1,0,"[85,154,171,203,219,0,51,40,15,152,20,132,122,304,261,41,6,146,137,43]",-25,7,1,0,0,0,29,29,16,1,,,,,,,,,,,,,,,,,,,,,,,
,,,,,,,,,,,,,,2,FF,,6,1.1161,,,,,,,,,,,,,,,,,,,,,,,,,,,,,60cc4e2f49b28d1b1fb0076a,60cc911c317f62aa9aa2f91b,2021-06-18_13h27.19.570,FlowerSimilarity_Experiment,2021.1.2,Win32,60.10699044,60cc862d586bafd4cd2fa98a,,,,,143,69,1,0,0,response1disk,3,31,13,4,1,0,0,rectangle,13,4,1,0,0,1,1,"[85,154,171,203,219,0,51,40,15,152,20,132,122,304,261,41,6,146,137,43]",13,4,1,0,0,0,30,30,36,1,,,,,,,,,,,,,,,,,,,,,,,
,,,,,,,,,,,,,,7,FF,,1,1.3497,,,,,,,,,,,,,,,,,,,,,,,,,,,,,60cc4e2f49b28d1b1fb0076a,60cc911c317f62aa9aa2f91b,2021-06-18_13h27.19.570,FlowerSimilarity_Experiment,2021.1.2,Win32,60.10699044,60cc862d586bafd4cd2fa98a,,,,,-125,52,1,0,0,response7disk,4,32,-20,14,1,0,0,rectangle,-20,14,1,0,0,1,4,"[85,154,171,203,219,0,51,40,15,152,20,132,122,304,261,41,6,146,137,43]",-20,14,1,0,0,0,31,31,48,1,,,,,,,,,,,,,,,,,,,,,,,
,,,,,,,,,,,,,,5,FF,,6,1.0799,,,,,,,,,,,,,,,,,,,,,,,,,,,,,60cc4e2f49b28d1b1fb0076a,60cc911c317f62aa9aa2f91b,2021-06-18_13h27.19.570,FlowerSimilarity_Experiment,2021.1.2,Win32,60.10699044,60cc862d586bafd4cd2fa98a,,,,,109,59,1,0,0,response1disk,3,33,-16,6,1,0,0,rectangle,-16,6,1,0,0,1,6,"[85,154,171,203,219,0,51,40,15,152,20,132,122,304,261,41,6,146,137,43]",-16,6,1,0,0,0,32,32,24,1,,,,,,,,,,,,,,,,,,,,,,,
,,,,,,,,,,,,,,3,FF,,2,3.7218,,,,,,,,,,,,,,,,,,,,,,,,,,,,,60cc4e2f49b28d1b1fb0076a,60cc911c317f62aa9aa2f91b,2021-06-18_13h27.19.570,FlowerSimilarity_Experiment,2021.1.2,Win32,60.10699044,60cc862d586bafd4cd2fa98a,,,,,-128,-54,1,0,0,response5disk,6,34,-5,4,1,0,0,rectangle,-5,4,1,0,0,1,0,"[85,154,171,203,219,0,51,40,15,152,20,132,122,304,261,41,6,146,137,43]",-5,4,1,0,0,0,33,33,20,1,,,,,,,,,,,,,,,,,,,,,,,
,,,,,,,,,,,,,,6,FF,,7,0.919,,,,,,,,,,,,,,,,,,,,,,,,,,,,,60cc4e2f49b28d1b1fb0076a,60cc911c317f62aa9aa2f91b,2021-06-18_13h27.19.570,FlowerSimilarity_Experiment,2021.1.2,Win32,60.10699044,60cc862d586bafd4cd2fa98a,,,,,41,134,1,0,0,response1disk,6,35,4,1,1,0,0,rectangle,4,1,1,0,0,1,0,"[85,154,171,203,219,0,51,40,15,152,20,132,122,304,261,41,6,146,137,43]",4,1,1,0,0,0,34,34,46,1,,,,,,,,,,,,,,,,,,,,,,,
,,,,,,,,,,,,,,2,FF,,0,1.7486,,,,,,,,,,,,,,,,,,,,,,,,,,,,,60cc4e2f49b28d1b1fb0076a,60cc911c317f62aa9aa2f91b,2021-06-18_13h27.19.570,FlowerSimilarity_Experiment,2021.1.2,Win32,60.10699044,60cc862d586bafd4cd2fa98a,,,,,-45,134,1,0,0,response7disk,1,36,-22,3,1,0,0,rectangle,-22,3,1,0,0,1,2,"[85,154,171,203,219,0,51,40,15,152,20,132,122,304,261,41,6,146,137,43]",-22,3,1,0,0,0,35,35,42,1,,,,,,,,,,,,,,,,,,,,,,,
,,,,,,,,,,,,,,4,FF,,4,1.7881,,,,,,,,,,,,,,,,,,,,,,,,,,,,,60cc4e2f49b28d1b1fb0076a,60cc911c317f62aa9aa2f91b,2021-06-18_13h27.19.570,FlowerSimilarity_Experiment,2021.1.2,Win32,60.10699044,60cc862d586bafd4cd2fa98a,,,,,35,-121,1,0,0,response3disk,2,37,-9,-4,1,0,0,rectangle,-9,-4,1,0,0,1,0,"[85,154,171,203,219,0,51,40,15,152,20,132,122,304,261,41,6,146,137,43]",-9,-4,1,0,0,0,36,36,33,1,,,,,,,,,,,,,,,,,,,,,,,
,,,,,,,,,,,,,,7,FF,,4,1.1854,,,,,,,,,,,,,,,,,,,,,,,,,,,,,60cc4e2f49b28d1b1fb0076a,60cc911c317f62aa9aa2f91b,2021-06-18_13h27.19.570,FlowerSimilarity_Experiment,2021.1.2,Win32,60.10699044,60cc862d586bafd4cd2fa98a,,,,,45,-106,1,0,0,response3disk,2,38,-20,4,1,0,0,rectangle,-20,4,1,0,0,1,4,"[85,154,171,203,219,0,51,40,15,152,20,132,122,304,261,41,6,146,137,43]",-20,4,1,0,0,0,37,37,12,1,,,,,,,,,,,,,,,,,,,,,,,
,,,,,,,,,,,,,,6,FF,,6,1.2312,,,,,,,,,,,,,,,,,,,,,,,,,,,,,60cc4e2f49b28d1b1fb0076a,60cc911c317f62aa9aa2f91b,2021-06-18_13h27.19.570,FlowerSimilarity_Experiment,2021.1.2,Win32,60.10699044,60cc862d586bafd4cd2fa98a,,,,,130,77,1,0,0,response1disk,1,39,5,7,1,0,0,rectangle,5,7,1,0,0,1,2,"[85,154,171,203,219,0,51,40,15,152,20,132,122,304,261,41,6,146,137,43]",5,7,1,0,0,0,38,38,39,1,,,,,,,,,,,,,,,,,,,,,,,
,,,,,,,,,,,,,,1,FF,,1,2.2978,,,,,,,,,,,,,,,,,,,,,,,,,,,,,60cc4e2f49b28d1b1fb0076a,60cc911c317f62aa9aa2f91b,2021-06-18_13h27.19.570,FlowerSimilarity_Experiment,2021.1.2,Win32,60.10699044,60cc862d586bafd4cd2fa98a,,,,,-117,42,1,0,0,response7disk,7,40,-11,2,1,0,0,rectangle,-47,139,1,0,0,0,0,"[85,154,171,203,219,0,51,40,15,152,20,132,122,304,261,41,6,146,137,43]",0,9,1,0,0,0,39,39,43,1,response7disk_3,rectangle,,,,,,,,,,,,,,,,,,,,,
,,,,,,,,,,,,,,5,FF,,7,0.9658,,,,,,,,,,,,,,,,,,,,,,,,,,,,,60cc4e2f49b28d1b1fb0076a,60cc911c317f62aa9aa2f91b,2021-06-18_13h27.19.570,FlowerSimilarity_Experiment,2021.1.2,Win32,60.10699044,60cc862d586bafd4cd2fa98a,,,,,72,158,1,0,0,response1disk,5,41,12,0,1,0,0,rectangle,-57,-105,1,0,0,3,3,"[85,154,171,203,219,0,51,40,15,152,20,132,122,304,261,41,6,146,137,43]",-15,7,1,0,0,0,40,40,22,1,response5disk_3,rectangle,,,,,,,,,,,,,,,,,,,,,
,,,,,,,,,,,,,,6,FF,,1,1.4355,,,,,,,,,,,,,,,,,,,,,,,,,,,,,60cc4e2f49b28d1b1fb0076a,60cc911c317f62aa9aa2f91b,2021-06-18_13h27.19.570,FlowerSimilarity_Experiment,2021.1.2,Win32,60.10699044,60cc862d586bafd4cd2fa98a,,,,,-127,56,1,0,0,response7disk,7,42,3,5,1,0,0,rectangle,3,5,1,0,0,3,6,"[85,154,171,203,219,0,51,40,15,152,20,132,122,304,261,41,6,146,137,43]",3,5,1,0,0,0,41,41,32,1,,,,,,,,,,,,,,,,,,,,,,,
,,,,,,,,,,,,,,4,FF,,5,2.2179,,,,,,,,,,,,,,,,,,,,,,,,,,,,,60cc4e2f49b28d1b1fb0076a,60cc911c317f62aa9aa2f91b,2021-06-18_13h27.19.570,FlowerSimilarity_Experiment,2021.1.2,Win32,60.10699044,60cc862d586bafd4cd2fa98a,,,,,112,-62,1,0,0,response3disk,3,43,-6,3,1,0,0,rectangle,50,-103,1,0,0,4,4,"[85,154,171,203,219,0,51,40,15,152,20,132,122,304,261,41,6,146,137,43]",12,-13,1,0,0,0,42,42,34,1,response3disk_3,rectangle,,,,,,,,,,,,,,,,,,,,,
,,,,,,,,,,,,,,3,FF,,0,0.9994,,,,,,,,,,,,,,,,,,,,,,,,,,,,,60cc4e2f49b28d1b1fb0076a,60cc911c317f62aa9aa2f91b,2021-06-18_13h27.19.570,FlowerSimilarity_Experiment,2021.1.2,Win32,60.10699044,60cc862d586bafd4cd2fa98a,,,,,-59,118,1,0,0,response7disk,1,44,-1,-5,1,0,0,rectangle,-1,-5,1,0,0,4,0,"[85,154,171,203,219,0,51,40,15,152,20,132,122,304,261,41,6,146,137,43]",-1,-5,1,0,0,0,43,43,6,1,,,,,,,,,,,,,,,,,,,,,,,
,,,,,,,,,,,,,,7,FF,,0,0.932,,,,,,,,,,,,,,,,,,,,,,,,,,,,,60cc4e2f49b28d1b1fb0076a,60cc911c317f62aa9aa2f91b,2021-06-18_13h27.19.570,FlowerSimilarity_Experiment,2021.1.2,Win32,60.10699044,60cc862d586bafd4cd2fa98a,,,,,-43,108,1,0,0,response7disk,1,45,1,-7,1,0,0,rectangle,1,-7,1,0,0,4,2,"[85,154,171,203,219,0,51,40,15,152,20,132,122,304,261,41,6,146,137,43]",1,-7,1,0,0,0,44,44,4,1,,,,,,,,,,,,,,,,,,,,,,,
,,,,,,,,,,,,,,4,FF,,0,0.8157,,,,,,,,,,,,,,,,,,,,,,,,,,,,,60cc4e2f49b28d1b1fb0076a,60cc911c317f62aa9aa2f91b,2021-06-18_13h27.19.570,FlowerSimilarity_Experiment,2021.1.2,Win32,60.10699044,60cc862d586bafd4cd2fa98a,,,,,-53,125,1,0,0,response7disk,6,46,-7,-6,1,0,0,rectangle,-7,-6,1,0,0,4,5,"[85,154,171,203,219,0,51,40,15,152,20,132,122,304,261,41,6,146,137,43]",-7,-6,1,0,0,0,45,45,25,1,,,,,,,,,,,,,,,,,,,,,,,
,,,,,,,,,,,,,,5,FF,,5,1.565,,,,,,,,,,,,,,,,,,,,,,,,,,,,,60cc4e2f49b28d1b1fb0076a,60cc911c317f62aa9aa2f91b,2021-06-18_13h27.19.570,FlowerSimilarity_Experiment,2021.1.2,Win32,60.10699044,60cc862d586bafd4cd2fa98a,,,,,121,-43,1,0,0,response3disk,2,47,5,3,1,0,0,rectangle,5,3,1,0,0,4,7,"[85,154,171,203,219,0,51,40,15,152,20,132,122,304,261,41,6,146,137,43]",5,3,1,0,0,0,46,46,28,1,,,,,,,,,,,,,,,,,,,,,,,
,,,,,,,,,,,,,,6,FF,,1,2.2512,,,,,,,,,,,,,,,,,,,,,,,,,,,,,60cc4e2f49b28d1b1fb0076a,60cc911c317f62aa9aa2f91b,2021-06-18_13h27.19.570,FlowerSimilarity_Experiment,2021.1.2,Win32,60.10699044,60cc862d586bafd4cd2fa98a,,,,,-121,74,1,0,0,response7disk,3,48,28,4,1,0,0,rectangle,28,4,1,0,0,4,0,"[85,154,171,203,219,0,51,40,15,152,20,132,122,304,261,41,6,146,137,43]",28,4,1,0,0,0,47,47,10,1,,,,,,,,,,,,,,,,,,,,,,,
,,,,,,,,,,,,,,5,FF,,1,0.8528,,,,,,,,,,,,,,,,,,,,,,,,,,,,,60cc4e2f49b28d1b1fb0076a,60cc911c317f62aa9aa2f91b,2021-06-18_13h27.19.570,FlowerSimilarity_Experiment,2021.1.2,Win32,60.10699044,60cc862d586bafd4cd2fa98a,,,,,-128,60,1,0,0,response7disk,4,49,-19,-7,1,0,0,rectangle,-19,-7,1,0,0,4,2,"[85,154,171,203,219,0,51,40,15,152,20,132,122,304,261,41,6,146,137,43]",-19,-7,1,0,0,0,48,48,5,1,,,,,,,,,,,,,,,,,,,,,,,
,,,,,,,,,,,,,,,,,,,,,,,,,,,,,,,,,,,,,,,,,,,,,,,60cc4e2f49b28d1b1fb0076a,60cc911c317f62aa9aa2f91b,2021-06-18_13h27.19.570,FlowerSimilarity_Experiment,2021.1.2,Win32,60.10699044,60cc862d586bafd4cd2fa98a,,,,,,,,,,,,,,,,,,,,,,,,,,,,,,,,,,,,,,,0,0,0,0,1,,,,,,,,,,,,,,,,
,,,,,,,,,,,,,,1,FF,,5,1.3432,,,,,,,,,,,,,,,,,,,,,,,,,,,,,60cc4e2f49b28d1b1fb0076a,60cc911c317f62aa9aa2f91b,2021-06-18_13h27.19.570,FlowerSimilarity_Experiment,2021.1.2,Win32,60.10699044,60cc862d586bafd4cd2fa98a,,,,,112,-43,1,0,0,response3disk,6,50,-12,-3,1,0,0,rectangle,-12,-3,1,0,0,4,6,"[85,154,171,203,219,0,51,40,15,152,20,132,122,304,261,41,6,146,137,43]",-12,-3,1,0,0,0,0,0,30,1,,,,,,,,,,,,,,,,,,,,,,,
,,,,,,,,,,,,,,5,FF,,0,0.9832,,,,,,,,,,,,,,,,,,,,,,,,,,,,,60cc4e2f49b28d1b1fb0076a,60cc911c317f62aa9aa2f91b,2021-06-18_13h27.19.570,FlowerSimilarity_Experiment,2021.1.2,Win32,60.10699044,60cc862d586bafd4cd2fa98a,,,,,-59,130,1,0,0,response7disk,1,51,-9,-6,1,0,0,rectangle,-122,40,1,0,0,1,1,"[85,154,171,203,219,0,51,40,15,152,20,132,122,304,261,41,6,146,137,43]",-28,1,1,0,0,0,1,1,45,1,response7disk_3,rectangle,,,,,,,,,,,,,,,,,,,,,
,,,,,,,,,,,,,,6,FF,,4,1.4376,,,,,,,,,,,,,,,,,,,,,,,,,,,,,60cc4e2f49b28d1b1fb0076a,60cc911c317f62aa9aa2f91b,2021-06-18_13h27.19.570,FlowerSimilarity_Experiment,2021.1.2,Win32,60.10699044,60cc862d586bafd4cd2fa98a,,,,,45,-110,1,0,0,response3disk,5,52,-5,14,1,0,0,rectangle,-5,14,1,0,0,1,5,"[85,154,171,203,219,0,51,40,15,152,20,132,122,304,261,41,6,146,137,43]",-5,14,1,0,0,0,2,2,14,1,,,,,,,,,,,,,,,,,,,,,,,
,,,,,,,,,,,,,,2,FF,,5,1.1177,,,,,,,,,,,,,,,,,,,,,,,,,,,,,60cc4e2f49b28d1b1fb0076a,60cc911c317f62aa9aa2f91b,2021-06-18_13h27.19.570,FlowerSimilarity_Experiment,2021.1.2,Win32,60.10699044,60cc862d586bafd4cd2fa98a,,,,,103,-60,1,0,0,response3disk,7,53,6,13,1,0,0,rectangle,6,13,1,0,0,1,5,"[85,154,171,203,219,0,51,40,15,152,20,132,122,304,261,41,6,146,137,43]",6,13,1,0,0,0,3,3,15,1,,,,,,,,,,,,,,,,,,,,,,,
,,,,,,,,,,,,,,3,FF,,5,0.829,,,,,,,,,,,,,,,,,,,,,,,,,,,,,60cc4e2f49b28d1b1fb0076a,60cc911c317f62aa9aa2f91b,2021-06-18_13h27.19.570,FlowerSimilarity_Experiment,2021.1.2,Win32,60.10699044,60cc862d586bafd4cd2fa98a,,,,,106,-42,1,0,0,response3disk,2,54,9,-7,1,0,0,rectangle,9,-7,1,0,0,1,5,"[85,154,171,203,219,0,51,40,15,152,20,132,122,304,261,41,6,146,137,43]",9,-7,1,0,0,0,4,4,35,1,,,,,,,,,,,,,,,,,,,,,,,
,,,,,,,,,,,,,,7,FF,,7,0.9996,,,,,,,,,,,,,,,,,,,,,,,,,,,,,60cc4e2f49b28d1b1fb0076a,60cc911c317f62aa9aa2f91b,2021-06-18_13h27.19.570,FlowerSimilarity_Experiment,2021.1.2,Win32,60.10699044,60cc862d586bafd4cd2fa98a,,,,,49,119,1,0,0,response1disk,3,55,10,-4,1,0,0,rectangle,10,-4,1,0,0,1,1,"[85,154,171,203,219,0,51,40,15,152,20,132,122,304,261,41,6,146,137,43]",10,-4,1,0,0,0,5,5,9,1,,,,,,,,,,,,,,,,,,,,,,,
,,,,,,,,,,,,,,3,FF,,7,0.836,,,,,,,,,,,,,,,,,,,,,,,,,,,,,60cc4e2f49b28d1b1fb0076a,60cc911c317f62aa9aa2f91b,2021-06-18_13h27.19.570,FlowerSimilarity_Experiment,2021.1.2,Win32,60.10699044,60cc862d586bafd4cd2fa98a,,,,,33,147,1,0,0,response1disk,3,56,7,0,1,0,0,rectangle,7,0,1,0,0,1,0,"[85,154,171,203,219,0,51,40,15,152,20,132,122,304,261,41,6,146,137,43]",7,0,1,0,0,0,6,6,1,1,,,,,,,,,,,,,,,,,,,,,,,
,,,,,,,,,,,,,,6,FF,,1,1.9816,,,,,,,,,,,,,,,,,,,,,,,,,,,,,60cc4e2f49b28d1b1fb0076a,60cc911c317f62aa9aa2f91b,2021-06-18_13h27.19.570,FlowerSimilarity_Experiment,2021.1.2,Win32,60.10699044,60cc862d586bafd4cd2fa98a,,,,,-121,56,1,0,0,response7disk,2,57,-27,3,1,0,0,rectangle,-27,3,1,0,0,1,7,"[85,154,171,203,219,0,51,40,15,152,20,132,122,304,261,41,6,146,137,43]",-27,3,1,0,0,0,7,7,11,1,,,,,,,,,,,,,,,,,,,,,,,
,,,,,,,,,,,,,,1,FF,,0,1.3707,,,,,,,,,,,,,,,,,,,,,,,,,,,,,60cc4e2f49b28d1b1fb0076a,60cc911c317f62aa9aa2f91b,2021-06-18_13h27.19.570,FlowerSimilarity_Experiment,2021.1.2,Win32,60.10699044,60cc862d586bafd4cd2fa98a,,,,,-82,106,1,0,0,response7disk,3,58,-27,-2,1,0,0,rectangle,-27,-2,1,0,0,1,2,"[85,154,171,203,219,0,51,40,15,152,20,132,122,304,261,41,6,146,137,43]",-27,-2,1,0,0,0,8,8,41,1,,,,,,,,,,,,,,,,,,,,,,,
,,,,,,,,,,,,,,2,FF,,2,1.3658,,,,,,,,,,,,,,,,,,,,,,,,,,,,,60cc4e2f49b28d1b1fb0076a,60cc911c317f62aa9aa2f91b,2021-06-18_13h27.19.570,FlowerSimilarity_Experiment,2021.1.2,Win32,60.10699044,60cc862d586bafd4cd2fa98a,,,,,-111,-48,1,0,0,response5disk,4,59,-7,-2,1,0,0,rectangle,-7,-2,1,0,0,1,6,"[85,154,171,203,219,0,51,40,15,152,20,132,122,304,261,41,6,146,137,43]",-7,-2,1,0,0,0,9,9,38,1,,,,,,,,,,,,,,,,,,,,,,,
,,,,,,,,,,,,,,7,FF,,2,1.7523,,,,,,,,,,,,,,,,,,,,,,,,,,,,,60cc4e2f49b28d1b1fb0076a,60cc911c317f62aa9aa2f91b,2021-06-18_13h27.19.570,FlowerSimilarity_Experiment,2021.1.2,Win32,60.10699044,60cc862d586bafd4cd2fa98a,,,,,-121,-54,1,0,0,response5disk,5,60,-12,-2,1,0,0,rectangle,-12,-2,1,0,0,1,5,"[85,154,171,203,219,0,51,40,15,152,20,132,122,304,261,41,6,146,137,43]",-12,-2,1,0,0,0,10,10,40,1,,,,,,,,,,,,,,,,,,,,,,,
,,,,,,,,,,,,,,2,FF,,2,1.2343,,,,,,,,,,,,,,,,,,,,,,,,,,,,,60cc4e2f49b28d1b1fb0076a,60cc911c317f62aa9aa2f91b,2021-06-18_13h27.19.570,FlowerSimilarity_Experiment,2021.1.2,Win32,60.10699044,60cc862d586bafd4cd2fa98a,,,,,-123,-72,1,0,0,response5disk,5,61,-16,-1,1,0,0,rectangle,-16,-1,1,0,0,1,3,"[85,154,171,203,219,0,51,40,15,152,20,132,122,304,261,41,6,146,137,43]",-16,-1,1,0,0,0,11,11,19,1,,,,,,,,,,,,,,,,,,,,,,,
,,,,,,,,,,,,,,7,FF,,7,0.9824,,,,,,,,,,,,,,,,,,,,,,,,,,,,,60cc4e2f49b28d1b1fb0076a,60cc911c317f62aa9aa2f91b,2021-06-18_13h27.19.570,FlowerSimilarity_Experiment,2021.1.2,Win32,60.10699044,60cc862d586bafd4cd2fa98a,,,,,47,132,1,0,0,response1disk,7,62,7,-11,1,0,0,rectangle,7,-11,1,0,0,1,1,"[85,154,171,203,219,0,51,40,15,152,20,132,122,304,261,41,6,146,137,43]",7,-11,1,0,0,0,12,12,3,1,,,,,,,,,,,,,,,,,,,,,,,
,,,,,,,,,,,,,,4,FF,,2,3.7803,,,,,,,,,,,,,,,,,,,,,,,,,,,,,60cc4e2f49b28d1b1fb0076a,60cc911c317f62aa9aa2f91b,2021-06-18_13h27.19.570,FlowerSimilarity_Experiment,2021.1.2,Win32,60.10699044,60cc862d586bafd4cd2fa98a,,,,,-115,-62,1,0,0,response5disk,5,63,-21,0,1,0,0,rectangle,-21,0,1,0,0,1,1,"[85,154,171,203,219,0,51,40,15,152,20,132,122,304,261,41,6,146,137,43]",-21,0,1,0,0,0,13,13,18,1,,,,,,,,,,,,,,,,,,,,,,,
,,,,,,,,,,,,,,7,FF,,0,1.7289,,,,,,,,,,,,,,,,,,,,,,,,,,,,,60cc4e2f49b28d1b1fb0076a,60cc911c317f62aa9aa2f91b,2021-06-18_13h27.19.570,FlowerSimilarity_Experiment,2021.1.2,Win32,60.10699044,60cc862d586bafd4cd2fa98a,,,,,-64,128,1,0,0,response7disk,6,64,-10,2,1,0,0,rectangle,-10,2,1,0,0,1,6,"[85,154,171,203,219,0,51,40,15,152,20,132,122,304,261,41,6,146,137,43]",-10,2,1,0,0,0,14,14,21,1,,,,,,,,,,,,,,,,,,,,,,,
,,,,,,,,,,,,,,1,FF,,7,0.7847,,,,,,,,,,,,,,,,,,,,,,,,,,,,,60cc4e2f49b28d1b1fb0076a,60cc911c317f62aa9aa2f91b,2021-06-18_13h27.19.570,FlowerSimilarity_Experiment,2021.1.2,Win32,60.10699044,60cc862d586bafd4cd2fa98a,,,,,63,146,1,0,0,response1disk,1,65,7,-18,1,0,0,rectangle,7,-18,1,0,0,1,7,"[85,154,171,203,219,0,51,40,15,152,20,132,122,304,261,41,6,146,137,43]",7,-18,1,0,0,0,15,15,7,1,,,,,,,,,,,,,,,,,,,,,,,
,,,,,,,,,,,,,,6,FF,,0,0.8162,,,,,,,,,,,,,,,,,,,,,,,,,,,,,60cc4e2f49b28d1b1fb0076a,60cc911c317f62aa9aa2f91b,2021-06-18_13h27.19.570,FlowerSimilarity_Experiment,2021.1.2,Win32,60.10699044,60cc862d586bafd4cd2fa98a,,,,,-42,127,1,0,0,response7disk,4,66,-9,-6,1,0,0,rectangle,-9,-6,1,0,0,1,1,"[85,154,171,203,219,0,51,40,15,152,20,132,122,304,261,41,6,146,137,43]",-9,-6,1,0,0,0,16,16,23,1,,,,,,,,,,,,,,,,,,,,,,,
,,,,,,,,,,,,,,3,FF,,5,1.0658,,,,,,,,,,,,,,,,,,,,,,,,,,,,,60cc4e2f49b28d1b1fb0076a,60cc911c317f62aa9aa2f91b,2021-06-18_13h27.19.570,FlowerSimilarity_Experiment,2021.1.2,Win32,60.10699044,60cc862d586bafd4cd2fa98a,,,,,93,-43,1,0,0,response3disk,5,67,13,-2,1,0,0,rectangle,13,-2,1,0,0,1,3,"[85,154,171,203,219,0,51,40,15,152,20,132,122,304,261,41,6,146,137,43]",13,-2,1,0,0,0,17,17,47,1,,,,,,,,,,,,,,,,,,,,,,,
,,,,,,,,,,,,,,4,FF,,0,1.9597,,,,,,,,,,,,,,,,,,,,,,,,,,,,,60cc4e2f49b28d1b1fb0076a,60cc911c317f62aa9aa2f91b,2021-06-18_13h27.19.570,FlowerSimilarity_Experiment,2021.1.2,Win32,60.10699044,60cc862d586bafd4cd2fa98a,,,,,-78,120,1,0,0,response7disk,1,68,-31,3,1,0,0,rectangle,-31,3,1,0,0,1,5,"[85,154,171,203,219,0,51,40,15,152,20,132,122,304,261,41,6,146,137,43]",-31,3,1,0,0,0,18,18,0,1,,,,,,,,,,,,,,,,,,,,,,,
,,,,,,,,,,,,,,4,FF,,7,0.9839,,,,,,,,,,,,,,,,,,,,,,,,,,,,,60cc4e2f49b28d1b1fb0076a,60cc911c317f62aa9aa2f91b,2021-06-18_13h27.19.570,FlowerSimilarity_Experiment,2021.1.2,Win32,60.10699044,60cc862d586bafd4cd2fa98a,,,,,56,134,1,0,0,response1disk,4,69,-4,10,1,0,0,rectangle,-4,10,1,0,0,1,1,"[85,154,171,203,219,0,51,40,15,152,20,132,122,304,261,41,6,146,137,43]",-4,10,1,0,0,0,19,19,37,1,,,,,,,,,,,,,,,,,,,,,,,
,,,,,,,,,,,,,,1,FF,,0,0.7666,,,,,,,,,,,,,,,,,,,,,,,,,,,,,60cc4e2f49b28d1b1fb0076a,60cc911c317f62aa9aa2f91b,2021-06-18_13h27.19.570,FlowerSimilarity_Experiment,2021.1.2,Win32,60.10699044,60cc862d586bafd4cd2fa98a,,,,,-70,131,1,0,0,response7disk,5,70,-15,0,1,0,0,rectangle,-15,0,1,0,0,1,0,"[85,154,171,203,219,0,51,40,15,152,20,132,122,304,261,41,6,146,137,43]",-15,0,1,0,0,0,20,20,2,1,,,,,,,,,,,,,,,,,,,,,,,
,,,,,,,,,,,,,,3,FF,,1,2.0194,,,,,,,,,,,,,,,,,,,,,,,,,,,,,60cc4e2f49b28d1b1fb0076a,60cc911c317f62aa9aa2f91b,2021-06-18_13h27.19.570,FlowerSimilarity_Experiment,2021.1.2,Win32,60.10699044,60cc862d586bafd4cd2fa98a,,,,,-130,64,1,0,0,response7disk,4,71,-21,9,1,0,0,rectangle,-21,9,1,0,0,1,0,"[85,154,171,203,219,0,51,40,15,152,20,132,122,304,261,41,6,146,137,43]",-21,9,1,0,0,0,21,21,26,1,,,,,,,,,,,,,,,,,,,,,,,
,,,,,,,,,,,,,,3,FF,,7,0.8004,,,,,,,,,,,,,,,,,,,,,,,,,,,,,60cc4e2f49b28d1b1fb0076a,60cc911c317f62aa9aa2f91b,2021-06-18_13h27.19.570,FlowerSimilarity_Experiment,2021.1.2,Win32,60.10699044,60cc862d586bafd4cd2fa98a,,,,,68,157,1,0,0,response1disk,7,72,2,-2,1,0,0,rectangle,2,-2,1,0,0,1,4,"[85,154,171,203,219,0,51,40,15,152,20,132,122,304,261,41,6,146,137,43]",2,-2,1,0,0,0,22,22,29,1,,,,,,,,,,,,,,,,,,,,,,,
,,,,,,,,,,,,,,1,FF,,1,2.2204,,,,,,,,,,,,,,,,,,,,,,,,,,,,,60cc4e2f49b28d1b1fb0076a,60cc911c317f62aa9aa2f91b,2021-06-18_13h27.19.570,FlowerSimilarity_Experiment,2021.1.2,Win32,60.10699044,60cc862d586bafd4cd2fa98a,,,,,-125,56,1,0,0,response7disk,2,73,-12,6,1,0,0,rectangle,-12,6,1,0,0,1,6,"[85,154,171,203,219,0,51,40,15,152,20,132,122,304,261,41,6,146,137,43]",-12,6,1,0,0,0,23,23,31,1,,,,,,,,,,,,,,,,,,,,,,,
,,,,,,,,,,,,,,2,FF,,7,0.6827,,,,,,,,,,,,,,,,,,,,,,,,,,,,,60cc4e2f49b28d1b1fb0076a,60cc911c317f62aa9aa2f91b,2021-06-18_13h27.19.570,FlowerSimilarity_Experiment,2021.1.2,Win32,60.10699044,60cc862d586bafd4cd2fa98a,,,,,40,149,1,0,0,response1disk,2,74,21,3,1,0,0,rectangle,21,3,1,0,0,1,2,"[85,154,171,203,219,0,51,40,15,152,20,132,122,304,261,41,6,146,137,43]",21,3,1,0,0,0,24,24,44,1,,,,,,,,,,,,,,,,,,,,,,,
,,,,,,,,,,,,,,5,FF,,6,2.1226,,,,,,,,,,,,,,,,,,,,,,,,,,,,,60cc4e2f49b28d1b1fb0076a,60cc911c317f62aa9aa2f91b,2021-06-18_13h27.19.570,FlowerSimilarity_Experiment,2021.1.2,Win32,60.10699044,60cc862d586bafd4cd2fa98a,,,,,127,42,1,0,0,response1disk,7,75,-39,13,1,0,0,rectangle,-39,13,1,0,0,1,0,"[85,154,171,203,219,0,51,40,15,152,20,132,122,304,261,41,6,146,137,43]",-39,13,1,0,0,0,25,25,8,1,,,,,,,,,,,,,,,,,,,,,,,
,,,,,,,,,,,,,,2,FF,,0,0.7998,,,,,,,,,,,,,,,,,,,,,,,,,,,,,60cc4e2f49b28d1b1fb0076a,60cc911c317f62aa9aa2f91b,2021-06-18_13h27.19.570,FlowerSimilarity_Experiment,2021.1.2,Win32,60.10699044,60cc862d586bafd4cd2fa98a,,,,,-43,125,1,0,0,response7disk,6,76,-6,2,1,0,0,rectangle,-6,2,1,0,0,1,7,"[85,154,171,203,219,0,51,40,15,152,20,132,122,304,261,41,6,146,137,43]",-6,2,1,0,0,0,26,26,13,1,,,,,,,,,,,,,,,,,,,,,,,
,,,,,,,,,,,,,,1,FF,,1,1.2327,,,,,,,,,,,,,,,,,,,,,,,,,,,,,60cc4e2f49b28d1b1fb0076a,60cc911c317f62aa9aa2f91b,2021-06-18_13h27.19.570,FlowerSimilarity_Experiment,2021.1.2,Win32,60.10699044,60cc862d586bafd4cd2fa98a,,,,,-117,49,1,0,0,response7disk,4,77,-23,-4,1,0,0,rectangle,-23,-4,1,0,0,1,6,"[85,154,171,203,219,0,51,40,15,152,20,132,122,304,261,41,6,146,137,43]",-23,-4,1,0,0,0,27,27,27,1,,,,,,,,,,,,,,,,,,,,,,,
,,,,,,,,,,,,,,5,FF,,1,1.7147,,,,,,,,,,,,,,,,,,,,,,,,,,,,,60cc4e2f49b28d1b1fb0076a,60cc911c317f62aa9aa2f91b,2021-06-18_13h27.19.570,FlowerSimilarity_Experiment,2021.1.2,Win32,60.10699044,60cc862d586bafd4cd2fa98a,,,,,-120,43,1,0,0,response7disk,6,78,-13,13,1,0,0,rectangle,-13,13,1,0,0,1,7,"[85,154,171,203,219,0,51,40,15,152,20,132,122,304,261,41,6,146,137,43]",-13,13,1,0,0,0,28,28,17,1,,,,,,,,,,,,,,,,,,,,,,,
,,,,,,,,,,,,,,4,FF,,5,1.1646,,,,,,,,,,,,,,,,,,,,,,,,,,,,,60cc4e2f49b28d1b1fb0076a,60cc911c317f62aa9aa2f91b,2021-06-18_13h27.19.570,FlowerSimilarity_Experiment,2021.1.2,Win32,60.10699044,60cc862d586bafd4cd2fa98a,,,,,95,-46,1,0,0,response3disk,7,79,6,-18,1,0,0,rectangle,6,-18,1,0,0,1,0,"[85,154,171,203,219,0,51,40,15,152,20,132,122,304,261,41,6,146,137,43]",6,-18,1,0,0,0,29,29,16,1,,,,,,,,,,,,,,,,,,,,,,,
,,,,,,,,,,,,,,2,FF,,6,2.0985,,,,,,,,,,,,,,,,,,,,,,,,,,,,,60cc4e2f49b28d1b1fb0076a,60cc911c317f62aa9aa2f91b,2021-06-18_13h27.19.570,FlowerSimilarity_Experiment,2021.1.2,Win32,60.10699044,60cc862d586bafd4cd2fa98a,,,,,135,55,1,0,0,response1disk,3,80,-28,8,1,0,0,rectangle,-28,8,1,0,0,1,1,"[85,154,171,203,219,0,51,40,15,152,20,132,122,304,261,41,6,146,137,43]",-28,8,1,0,0,0,30,30,36,1,,,,,,,,,,,,,,,,,,,,,,,
,,,,,,,,,,,,,,7,FF,,2,1.216,,,,,,,,,,,,,,,,,,,,,,,,,,,,,60cc4e2f49b28d1b1fb0076a,60cc911c317f62aa9aa2f91b,2021-06-18_13h27.19.570,FlowerSimilarity_Experiment,2021.1.2,Win32,60.10699044,60cc862d586bafd4cd2fa98a,,,,,-124,-63,1,0,0,response5disk,4,81,-19,-10,1,0,0,rectangle,-19,-10,1,0,0,1,4,"[85,154,171,203,219,0,51,40,15,152,20,132,122,304,261,41,6,146,137,43]",-19,-10,1,0,0,0,31,31,48,1,,,,,,,,,,,,,,,,,,,,,,,
,,,,,,,,,,,,,,5,FF,,6,0.8485,,,,,,,,,,,,,,,,,,,,,,,,,,,,,60cc4e2f49b28d1b1fb0076a,60cc911c317f62aa9aa2f91b,2021-06-18_13h27.19.570,FlowerSimilarity_Experiment,2021.1.2,Win32,60.10699044,60cc862d586bafd4cd2fa98a,,,,,114,39,1,0,0,response1disk,3,82,15,-8,1,0,0,rectangle,15,-8,1,0,0,1,6,"[85,154,171,203,219,0,51,40,15,152,20,132,122,304,261,41,6,146,137,43]",15,-8,1,0,0,0,32,32,24,1,,,,,,,,,,,,,,,,,,,,,,,
,,,,,,,,,,,,,,3,FF,,1,2.5642,,,,,,,,,,,,,,,,,,,,,,,,,,,,,60cc4e2f49b28d1b1fb0076a,60cc911c317f62aa9aa2f91b,2021-06-18_13h27.19.570,FlowerSimilarity_Experiment,2021.1.2,Win32,60.10699044,60cc862d586bafd4cd2fa98a,,,,,-124,33,1,0,0,response7disk,6,83,-6,3,1,0,0,rectangle,-6,3,1,0,0,1,0,"[85,154,171,203,219,0,51,40,15,152,20,132,122,304,261,41,6,146,137,43]",-6,3,1,0,0,0,33,33,20,1,,,,,,,,,,,,,,,,,,,,,,,
,,,,,,,,,,,,,,6,FF,,7,0.7139,,,,,,,,,,,,,,,,,,,,,,,,,,,,,60cc4e2f49b28d1b1fb0076a,60cc911c317f62aa9aa2f91b,2021-06-18_13h27.19.570,FlowerSimilarity_Experiment,2021.1.2,Win32,60.10699044,60cc862d586bafd4cd2fa98a,,,,,45,128,1,0,0,response1disk,6,84,3,6,1,0,0,rectangle,3,6,1,0,0,1,0,"[85,154,171,203,219,0,51,40,15,152,20,132,122,304,261,41,6,146,137,43]",3,6,1,0,0,0,34,34,46,1,,,,,,,,,,,,,,,,,,,,,,,
,,,,,,,,,,,,,,2,FF,,1,8.1239,,,,,,,,,,,,,,,,,,,,,,,,,,,,,60cc4e2f49b28d1b1fb0076a,60cc911c317f62aa9aa2f91b,2021-06-18_13h27.19.570,FlowerSimilarity_Experiment,2021.1.2,Win32,60.10699044,60cc862d586bafd4cd2fa98a,,,,,-124,56,1,0,0,response7disk,1,85,-10,4,1,0,0,rectangle,-112,-51,1,0,0,1,2,"[85,154,171,203,219,0,51,40,15,152,20,132,122,304,261,41,6,146,137,43]",-12,1,1,0,0,0,35,35,42,1,response5disk_3,rectangle,,,,,,,,,,,,,,,,,,,,,
,,,,,,,,,,,,,,4,FF,,1,1.0153,,,,,,,,,,,,,,,,,,,,,,,,,,,,,60cc4e2f49b28d1b1fb0076a,60cc911c317f62aa9aa2f91b,2021-06-18_13h27.19.570,FlowerSimilarity_Experiment,2021.1.2,Win32,60.10699044,60cc862d586bafd4cd2fa98a,,,,,-122,58,1,0,0,response7disk,2,86,-33,4,1,0,0,rectangle,-33,4,1,0,0,1,0,"[85,154,171,203,219,0,51,40,15,152,20,132,122,304,261,41,6,146,137,43]",-33,4,1,0,0,0,36,36,33,1,,,,,,,,,,,,,,,,,,,,,,,
,,,,,,,,,,,,,,7,FF,,4,1.3148,,,,,,,,,,,,,,,,,,,,,,,,,,,,,60cc4e2f49b28d1b1fb0076a,60cc911c317f62aa9aa2f91b,2021-06-18_13h27.19.570,FlowerSimilarity_Experiment,2021.1.2,Win32,60.10699044,60cc862d586bafd4cd2fa98a,,,,,44,-101,1,0,0,response3disk,2,87,6,-13,1,0,0,rectangle,6,-13,1,0,0,1,4,"[85,154,171,203,219,0,51,40,15,152,20,132,122,304,261,41,6,146,137,43]",6,-13,1,0,0,0,37,37,12,1,,,,,,,,,,,,,,,,,,,,,,,
,,,,,,,,,,,,,,6,FF,,4,1.9684,,,,,,,,,,,,,,,,,,,,,,,,,,,,,60cc4e2f49b28d1b1fb0076a,60cc911c317f62aa9aa2f91b,2021-06-18_13h27.19.570,FlowerSimilarity_Experiment,2021.1.2,Win32,60.10699044,60cc862d586bafd4cd2fa98a,,,,,50,-113,1,0,0,response3disk,1,88,-1,-5,1,0,0,rectangle,-1,-5,1,0,0,1,2,"[85,154,171,203,219,0,51,40,15,152,20,132,122,304,261,41,6,146,137,43]",-1,-5,1,0,0,0,38,38,39,1,,,,,,,,,,,,,,,,,,,,,,,
,,,,,,,,,,,,,,1,FF,,1,2.7706,,,,,,,,,,,,,,,,,,,,,,,,,,,,,60cc4e2f49b28d1b1fb0076a,60cc911c317f62aa9aa2f91b,2021-06-18_13h27.19.570,FlowerSimilarity_Experiment,2021.1.2,Win32,60.10699044,60cc862d586bafd4cd2fa98a,,,,,-115,42,1,0,0,response7disk,7,89,-14,-2,1,0,0,rectangle,-14,-2,1,0,0,1,0,"[85,154,171,203,219,0,51,40,15,152,20,132,122,304,261,41,6,146,137,43]",-14,-2,1,0,0,0,39,39,43,1,,,,,,,,,,,,,,,,,,,,,,,
,,,,,,,,,,,,,,5,FF,,7,0.8329,,,,,,,,,,,,,,,,,,,,,,,,,,,,,60cc4e2f49b28d1b1fb0076a,60cc911c317f62aa9aa2f91b,2021-06-18_13h27.19.570,FlowerSimilarity_Experiment,2021.1.2,Win32,60.10699044,60cc862d586bafd4cd2fa98a,,,,,43,142,1,0,0,response1disk,5,90,14,10,1,0,0,rectangle,14,10,1,0,0,1,3,"[85,154,171,203,219,0,51,40,15,152,20,132,122,304,261,41,6,146,137,43]",14,10,1,0,0,0,40,40,22,1,,,,,,,,,,,,,,,,,,,,,,,
,,,,,,,,,,,,,,6,FF,,2,2.0497,,,,,,,,,,,,,,,,,,,,,,,,,,,,,60cc4e2f49b28d1b1fb0076a,60cc911c317f62aa9aa2f91b,2021-06-18_13h27.19.570,FlowerSimilarity_Experiment,2021.1.2,Win32,60.10699044,60cc862d586bafd4cd2fa98a,,,,,-132,-51,1,0,0,response5disk,7,91,-30,-3,1,0,0,rectangle,-30,-3,1,0,0,1,6,"[85,154,171,203,219,0,51,40,15,152,20,132,122,304,261,41,6,146,137,43]",-30,-3,1,0,0,0,41,41,32,1,,,,,,,,,,,,,,,,,,,,,,,
,,,,,,,,,,,,,,4,FF,,3,1.9315,,,,,,,,,,,,,,,,,,,,,,,,,,,,,60cc4e2f49b28d1b1fb0076a,60cc911c317f62aa9aa2f91b,2021-06-18_13h27.19.570,FlowerSimilarity_Experiment,2021.1.2,Win32,60.10699044,60cc862d586bafd4cd2fa98a,,,,,-47,-115,1,0,0,response5disk,3,92,36,-2,1,0,0,rectangle,36,-2,1,0,0,1,4,"[85,154,171,203,219,0,51,40,15,152,20,132,122,304,261,41,6,146,137,43]",36,-2,1,0,0,0,42,42,34,1,,,,,,,,,,,,,,,,,,,,,,,
,,,,,,,,,,,,,,3,FF,,0,0.9167,,,,,,,,,,,,,,,,,,,,,,,,,,,,,60cc4e2f49b28d1b1fb0076a,60cc911c317f62aa9aa2f91b,2021-06-18_13h27.19.570,FlowerSimilarity_Experiment,2021.1.2,Win32,60.10699044,60cc862d586bafd4cd2fa98a,,,,,-93,137,1,0,0,response7disk,1,93,-8,-4,1,0,0,rectangle,-8,-4,1,0,0,1,0,"[85,154,171,203,219,0,51,40,15,152,20,132,122,304,261,41,6,146,137,43]",-8,-4,1,0,0,0,43,43,6,1,,,,,,,,,,,,,,,,,,,,,,,
,,,,,,,,,,,,,,7,FF,,0,0.7494,,,,,,,,,,,,,,,,,,,,,,,,,,,,,60cc4e2f49b28d1b1fb0076a,60cc911c317f62aa9aa2f91b,2021-06-18_13h27.19.570,FlowerSimilarity_Experiment,2021.1.2,Win32,60.10699044,60cc862d586bafd4cd2fa98a,,,,,-74,147,1,0,0,response7disk,1,94,-11,8,1,0,0,rectangle,-11,8,1,0,0,1,2,"[85,154,171,203,219,0,51,40,15,152,20,132,122,304,261,41,6,146,137,43]",-11,8,1,0,0,0,44,44,4,1,,,,,,,,,,,,,,,,,,,,,,,
,,,,,,,,,,,,,,4,FF,,0,0.7365,,,,,,,,,,,,,,,,,,,,,,,,,,,,,60cc4e2f49b28d1b1fb0076a,60cc911c317f62aa9aa2f91b,2021-06-18_13h27.19.570,FlowerSimilarity_Experiment,2021.1.2,Win32,60.10699044,60cc862d586bafd4cd2fa98a,,,,,-73,134,1,0,0,response7disk,6,95,-14,5,1,0,0,rectangle,-14,5,1,0,0,1,5,"[85,154,171,203,219,0,51,40,15,152,20,132,122,304,261,41,6,146,137,43]",-14,5,1,0,0,0,45,45,25,1,,,,,,,,,,,,,,,,,,,,,,,
,,,,,,,,,,,,,,5,FF,,5,1.4185,,,,,,,,,,,,,,,,,,,,,,,,,,,,,60cc4e2f49b28d1b1fb0076a,60cc911c317f62aa9aa2f91b,2021-06-18_13h27.19.570,FlowerSimilarity_Experiment,2021.1.2,Win32,60.10699044,60cc862d586bafd4cd2fa98a,,,,,94,-51,1,0,0,response3disk,2,96,-2,-2,1,0,0,rectangle,-2,-2,1,0,0,1,7,"[85,154,171,203,219,0,51,40,15,152,20,132,122,304,261,41,6,146,137,43]",-2,-2,1,0,0,0,46,46,28,1,,,,,,,,,,,,,,,,,,,,,,,
,,,,,,,,,,,,,,6,FF,,0,0.9681,,,,,,,,,,,,,,,,,,,,,,,,,,,,,60cc4e2f49b28d1b1fb0076a,60cc911c317f62aa9aa2f91b,2021-06-18_13h27.19.570,FlowerSimilarity_Experiment,2021.1.2,Win32,60.10699044,60cc862d586bafd4cd2fa98a,,,,,-69,140,1,0,0,response7disk,3,97,-9,11,1,0,0,rectangle,-9,11,1,0,0,1,0,"[85,154,171,203,219,0,51,40,15,152,20,132,122,304,261,41,6,146,137,43]",-9,11,1,0,0,0,47,47,10,1,,,,,,,,,,,,,,,,,,,,,,,
,,,,,,,,,,,,,,5,FF,,0,0.9185,,,,,,,,,,,,,,,,,,,,,,,,,,,,,60cc4e2f49b28d1b1fb0076a,60cc911c317f62aa9aa2f91b,2021-06-18_13h27.19.570,FlowerSimilarity_Experiment,2021.1.2,Win32,60.10699044,60cc862d586bafd4cd2fa98a,,,,,-52,109,1,0,0,response7disk,4,98,-14,8,1,0,0,rectangle,-14,8,1,0,0,1,2,"[85,154,171,203,219,0,51,40,15,152,20,132,122,304,261,41,6,146,137,43]",-14,8,1,0,0,0,48,48,5,1,,,,,,,,,,,,,,,,,,,,,,,
,,,,,,,,,,,,,,,,,,,,,,,,,,,,,,,,,,,,,,,,,,,,,,,60cc4e2f49b28d1b1fb0076a,60cc911c317f62aa9aa2f91b,2021-06-18_13h27.19.570,FlowerSimilarity_Experiment,2021.1.2,Win32,60.10699044,60cc862d586bafd4cd2fa98a,,,,,,,,,,,,,,,,,,,,,,,,,,,,,,,,,,,,,,,1,0,1,0,1,,,,,,,,,,,,,,,,
,,,,,,,,,,,,,,,,,,,,,,,,,,,,,,,,,,,,,,,,,,,,,,,60cc4e2f49b28d1b1fb0076a,60cc911c317f62aa9aa2f91b,2021-06-18_13h27.19.570,FlowerSimilarity_Experiment,2021.1.2,Win32,60.10699044,60cc862d586bafd4cd2fa98a,,,,,,,,,,,,,,,,,,,,,,,,,,,,,,,,,,,,,,,,,,,,n,14.8889,y,14.9016,n,6.5929,similar colours,25.8264,3,11.4719,1,5.96,never,10.623,thanks,24.9936
