key_resp.keys,key_resp.rt,key_resp_16.keys,key_resp_16.rt,key_resp_14.keys,key_resp_14.rt,key_resp_15.keys,key_resp_15.rt,key_resp_17.keys,key_resp_17.rt,key_resp_9.keys,key_resp_9.rt,key_resp_10.keys,key_resp_10.rt,Flower1,Ecc,Flower_2,similarity,response_time,mouse_5.x,mouse_5.y,mouse_5.leftButton,mouse_5.midButton,mouse_5.rightButton,mouse_5.clicked_name,mouse_10.x,mouse_10.y,mouse_10.leftButton,mouse_10.midButton,mouse_10.rightButton,mouse_10.clicked_name,mouse_7.x,mouse_7.y,mouse_7.leftButton,mouse_7.midButton,mouse_7.rightButton,catchnumberprac,mouse_6.x,mouse_6.y,mouse_6.leftButton,mouse_6.midButton,mouse_6.rightButton,duringprac.thisRepN,duringprac.thisTrialN,duringprac.thisN,duringprac.thisIndex,duringprac.ran,participant,session,date,expName,psychopyVersion,OS,frameRate,study_id,mouse_7.clicked_name,catchprac,mouse_6.clicked_name,key_resp_22.keys,key_resp_22.rt,mouse.x,mouse.y,mouse.leftButton,mouse.midButton,mouse.rightButton,mouse.clicked_name,Flower2,trialnumber,mouse_2.x,mouse_2.y,mouse_2.leftButton,mouse_2.midButton,mouse_2.rightButton,mouse_2.clicked_name,mouse_3.x,mouse_3.y,mouse_3.leftButton,mouse_3.midButton,mouse_3.rightButton,catchresponse,catchnumber,catchtrialorder,mouse_11.x,mouse_11.y,mouse_11.leftButton,mouse_11.midButton,mouse_11.rightButton,trials_2.thisRepN,trials_2.thisTrialN,trials_2.thisN,trials_2.thisIndex,trials_2.ran,mouse_3.clicked_name,mouse_11.clicked_name,trials_3.thisRepN,trials_3.thisTrialN,trials_3.thisN,trials_3.thisIndex,trials_3.ran,answer1,rt1,answer2,rt2,answer3,rt3,answer4,rt4,answer5,rt5,answer6,rt6,answer8,rt8,answer7,rt7
space,2.593905,space,5.739745,space,8.478885,space,9.24291,space,5.0719,space,4.49821,space,2.937095,6,FF,6,7,2.806035,49.86572266,87.1975708,1,0,1,response1disk_5,18.55200195,-3.865600586,1,0,1,rectangle_8,18.55200195,-3.865600586,1,0,1,1,18.55200195,-3.865600586,1,0,1,0,0,0,1,1,607a51b65477bb1614145a9c,60cc88e9cc21b78536cf56ad,2021-06-18_07h52.26.227,FlowerSimilarity_Experiment,2021.1.2,MacIntel,59.94125757,60cc862d586bafd4cd2fa98a,,,,,,,,,,,,,,,,,,,,,,,,,,,,,,,,,,,,,,,,,,,,,,,,,,,,,,,,,,,,
,,,,,,,,,,,,,,4,FF,6,2,5.26436,-87.93103027,-48.2689209,1,0,1,response5disk_5,-14.38458252,-2.119140625,1,0,1,rectangle_8,-14.38458252,-2.119140625,1,0,1,1,-14.38458252,-2.119140625,1,0,1,0,1,1,4,1,607a51b65477bb1614145a9c,60cc88e9cc21b78536cf56ad,2021-06-18_07h52.26.227,FlowerSimilarity_Experiment,2021.1.2,MacIntel,59.94125757,60cc862d586bafd4cd2fa98a,,,,,,,,,,,,,,,,,,,,,,,,,,,,,,,,,,,,,,,,,,,,,,,,,,,,,,,,,,,,
,,,,,,,,,,,,,,2,FF,2,7,1.442445,30.1060791,108.9364319,1,0,1,response1disk_5,3.644287109,-6.712402344,1,0,1,rectangle_8,-117.6533813,53.38214111,1,0,1,1,-14.8828125,2.489624023,1,0,1,0,2,2,3,1,607a51b65477bb1614145a9c,60cc88e9cc21b78536cf56ad,2021-06-18_07h52.26.227,FlowerSimilarity_Experiment,2021.1.2,MacIntel,59.94125757,60cc862d586bafd4cd2fa98a,response7disk_7,1,rectangle_4,,,,,,,,,,,,,,,,,,,,,,,,,,,,,,,,,,,,,,,,,,,,,,,,,,,,,,,,,
,,,,,,,,,,,,,,1,FF,1,7,1.56842,50.15844727,105.5139465,1,0,1,response1disk_5,-10.54620361,-1.678344727,1,0,1,rectangle_8,-10.54620361,-1.678344727,1,0,1,1,-10.54620361,-1.678344727,1,0,1,0,3,3,2,1,607a51b65477bb1614145a9c,60cc88e9cc21b78536cf56ad,2021-06-18_07h52.26.227,FlowerSimilarity_Experiment,2021.1.2,MacIntel,59.94125757,60cc862d586bafd4cd2fa98a,,,,,,,,,,,,,,,,,,,,,,,,,,,,,,,,,,,,,,,,,,,,,,,,,,,,,,,,,,,,
,,,,,,,,,,,,,,1,FF,1,7,1.250755,57.62408447,117.2619019,1,0,1,response1disk_5,23.11907959,-12.07702637,1,0,1,rectangle_8,23.11907959,-12.07702637,1,0,1,1,23.11907959,-12.07702637,1,0,1,0,4,4,5,1,607a51b65477bb1614145a9c,60cc88e9cc21b78536cf56ad,2021-06-18_07h52.26.227,FlowerSimilarity_Experiment,2021.1.2,MacIntel,59.94125757,60cc862d586bafd4cd2fa98a,,,,,,,,,,,,,,,,,,,,,,,,,,,,,,,,,,,,,,,,,,,,,,,,,,,,,,,,,,,,
,,,,,,,,,,,,,,4,FF,4,7,1.191515,57.82171631,112.4067383,1,0,1,response1disk_5,28.50769043,2.166320801,1,0,1,rectangle_8,28.50769043,2.166320801,1,0,1,1,28.50769043,2.166320801,1,0,1,0,5,5,6,1,607a51b65477bb1614145a9c,60cc88e9cc21b78536cf56ad,2021-06-18_07h52.26.227,FlowerSimilarity_Experiment,2021.1.2,MacIntel,59.94125757,60cc862d586bafd4cd2fa98a,,,,,,,,,,,,,,,,,,,,,,,,,,,,,,,,,,,,,,,,,,,,,,,,,,,,,,,,,,,,
,,,,,,,,,,,,,,2,FF,3,3,4.66068,-66.07202148,-107.132019,1,0,1,response5disk_5,6.209411621,3.571350098,1,0,1,rectangle_8,6.209411621,3.571350098,1,0,1,1,6.209411621,3.571350098,1,0,1,0,6,6,0,1,607a51b65477bb1614145a9c,60cc88e9cc21b78536cf56ad,2021-06-18_07h52.26.227,FlowerSimilarity_Experiment,2021.1.2,MacIntel,59.94125757,60cc862d586bafd4cd2fa98a,,,,,,,,,,,,,,,,,,,,,,,,,,,,,,,,,,,,,,,,,,,,,,,,,,,,,,,,,,,,
,,,,,,,,,,,,,,1,FF,,1,2.83645,,,,,,,,,,,,,,,,,,,,,,,,,,,,,607a51b65477bb1614145a9c,60cc88e9cc21b78536cf56ad,2021-06-18_07h52.26.227,FlowerSimilarity_Experiment,2021.1.2,MacIntel,59.94125757,60cc862d586bafd4cd2fa98a,,,,space,3.903185,-107.9526367,22.72998047,1,0,1,response7disk,3,1,-1.922302246,0.704162598,1,0,1,rectangle,-1.922302246,0.704162598,1,0,1,,0,"[166,279,168,210,93,74,168,68,318,133,69,66,14,207,252,13,284,141,160,61]",-1.922302246,0.704162598,1,0,1,0,0,0,41,1,,,,,,,,,,,,,,,,,,,,,,,
,,,,,,,,,,,,,,5,FF,,3,1.618315,,,,,,,,,,,,,,,,,,,,,,,,,,,,,607a51b65477bb1614145a9c,60cc88e9cc21b78536cf56ad,2021-06-18_07h52.26.227,FlowerSimilarity_Experiment,2021.1.2,MacIntel,59.94125757,60cc862d586bafd4cd2fa98a,,,,,,-40.13085938,-114.1207886,1,0,1,response5disk,3,2,-3.759887695,0.351501465,1,0,1,rectangle,-3.759887695,0.351501465,1,0,1,,4,"[166,279,168,210,93,74,168,68,318,133,69,66,14,207,252,13,284,141,160,61]",-3.759887695,0.351501465,1,0,1,0,1,1,24,1,,,,,,,,,,,,,,,,,,,,,,,
,,,,,,,,,,,,,,1,FF,,2,2.07608,,,,,,,,,,,,,,,,,,,,,,,,,,,,,607a51b65477bb1614145a9c,60cc88e9cc21b78536cf56ad,2021-06-18_07h52.26.227,FlowerSimilarity_Experiment,2021.1.2,MacIntel,59.94125757,60cc862d586bafd4cd2fa98a,,,,,,-85.69836426,-37.99914551,1,0,1,response5disk,7,3,3.794921875,4.52331543,1,0,1,rectangle,3.794921875,4.52331543,1,0,1,,6,"[166,279,168,210,93,74,168,68,318,133,69,66,14,207,252,13,284,141,160,61]",3.794921875,4.52331543,1,0,1,0,2,2,43,1,,,,,,,,,,,,,,,,,,,,,,,
,,,,,,,,,,,,,,7,FF,,4,1.901285,,,,,,,,,,,,,,,,,,,,,,,,,,,,,607a51b65477bb1614145a9c,60cc88e9cc21b78536cf56ad,2021-06-18_07h52.26.227,FlowerSimilarity_Experiment,2021.1.2,MacIntel,59.94125757,60cc862d586bafd4cd2fa98a,,,,,,22.61560059,-118.2458496,1,0,1,response3disk,5,4,-9.061462402,17.23498535,1,0,1,rectangle,-9.061462402,17.23498535,1,0,1,,3,"[166,279,168,210,93,74,168,68,318,133,69,66,14,207,252,13,284,141,160,61]",-9.061462402,17.23498535,1,0,1,0,3,3,40,1,,,,,,,,,,,,,,,,,,,,,,,
,,,,,,,,,,,,,,2,FF,,5,2.117305,,,,,,,,,,,,,,,,,,,,,,,,,,,,,607a51b65477bb1614145a9c,60cc88e9cc21b78536cf56ad,2021-06-18_07h52.26.227,FlowerSimilarity_Experiment,2021.1.2,MacIntel,59.94125757,60cc862d586bafd4cd2fa98a,,,,,,91.2935791,-60.69458008,1,0,1,response3disk,1,5,-38.92492676,-8.561523438,1,0,1,rectangle,-38.92492676,-8.561523438,1,0,1,,2,"[166,279,168,210,93,74,168,68,318,133,69,66,14,207,252,13,284,141,160,61]",-38.92492676,-8.561523438,1,0,1,0,4,4,42,1,,,,,,,,,,,,,,,,,,,,,,,
,,,,,,,,,,,,,,7,FF,,5,2.676085,,,,,,,,,,,,,,,,,,,,,,,,,,,,,607a51b65477bb1614145a9c,60cc88e9cc21b78536cf56ad,2021-06-18_07h52.26.227,FlowerSimilarity_Experiment,2021.1.2,MacIntel,59.94125757,60cc862d586bafd4cd2fa98a,,,,,,81.63671875,-63.33209229,1,0,1,response3disk,4,6,-3.244445801,21.55554199,0,0,1,rectangle,-3.244445801,21.55554199,0,0,1,,6,"[166,279,168,210,93,74,168,68,318,133,69,66,14,207,252,13,284,141,160,61]",-3.244445801,21.55554199,0,0,1,0,5,5,48,1,,,,,,,,,,,,,,,,,,,,,,,
,,,,,,,,,,,,,,1,FF,,7,1.16725,,,,,,,,,,,,,,,,,,,,,,,,,,,,,607a51b65477bb1614145a9c,60cc88e9cc21b78536cf56ad,2021-06-18_07h52.26.227,FlowerSimilarity_Experiment,2021.1.2,MacIntel,59.94125757,60cc862d586bafd4cd2fa98a,,,,,,41.81188965,92.25817871,1,0,1,response1disk,1,7,5.380126953,-19.1673584,0,0,1,rectangle,5.380126953,-19.1673584,0,0,1,,2,"[166,279,168,210,93,74,168,68,318,133,69,66,14,207,252,13,284,141,160,61]",5.380126953,-19.1673584,0,0,1,0,6,6,7,1,,,,,,,,,,,,,,,,,,,,,,,
,,,,,,,,,,,,,,4,FF,,3,1.918395,,,,,,,,,,,,,,,,,,,,,,,,,,,,,607a51b65477bb1614145a9c,60cc88e9cc21b78536cf56ad,2021-06-18_07h52.26.227,FlowerSimilarity_Experiment,2021.1.2,MacIntel,59.94125757,60cc862d586bafd4cd2fa98a,,,,,,-42.33447266,-85.81518555,1,0,1,response5disk,3,8,-0.798034668,-0.90222168,1,0,1,rectangle,-0.798034668,-0.90222168,1,0,1,,2,"[166,279,168,210,93,74,168,68,318,133,69,66,14,207,252,13,284,141,160,61]",-0.798034668,-0.90222168,1,0,1,0,7,7,34,1,,,,,,,,,,,,,,,,,,,,,,,
,,,,,,,,,,,,,,5,FF,,3,1.68465,,,,,,,,,,,,,,,,,,,,,,,,,,,,,607a51b65477bb1614145a9c,60cc88e9cc21b78536cf56ad,2021-06-18_07h52.26.227,FlowerSimilarity_Experiment,2021.1.2,MacIntel,59.94125757,60cc862d586bafd4cd2fa98a,,,,,,-78.60516357,-98.0824585,1,0,1,response5disk,4,9,-20.02868652,15.00805664,1,0,1,rectangle,-20.02868652,15.00805664,1,0,1,,1,"[166,279,168,210,93,74,168,68,318,133,69,66,14,207,252,13,284,141,160,61]",-20.02868652,15.00805664,1,0,1,0,8,8,5,1,,,,,,,,,,,,,,,,,,,,,,,
,,,,,,,,,,,,,,5,FF,,5,1.517255,,,,,,,,,,,,,,,,,,,,,,,,,,,,,607a51b65477bb1614145a9c,60cc88e9cc21b78536cf56ad,2021-06-18_07h52.26.227,FlowerSimilarity_Experiment,2021.1.2,MacIntel,59.94125757,60cc862d586bafd4cd2fa98a,,,,,,89.47143555,-67.934021,1,0,1,response3disk,2,10,22.34753418,1.63269043,1,0,1,rectangle,22.34753418,1.63269043,1,0,1,,1,"[166,279,168,210,93,74,168,68,318,133,69,66,14,207,252,13,284,141,160,61]",22.34753418,1.63269043,1,0,1,0,9,9,28,1,,,,,,,,,,,,,,,,,,,,,,,
,,,,,,,,,,,,,,2,FF,,4,1.701975,,,,,,,,,,,,,,,,,,,,,,,,,,,,,607a51b65477bb1614145a9c,60cc88e9cc21b78536cf56ad,2021-06-18_07h52.26.227,FlowerSimilarity_Experiment,2021.1.2,MacIntel,59.94125757,60cc862d586bafd4cd2fa98a,,,,,,57.82189941,-102.1859131,1,0,1,response3disk,7,11,-0.979003906,-14.74121094,1,0,1,rectangle,-0.979003906,-14.74121094,1,0,1,,2,"[166,279,168,210,93,74,168,68,318,133,69,66,14,207,252,13,284,141,160,61]",-0.979003906,-14.74121094,1,0,1,0,10,10,15,1,,,,,,,,,,,,,,,,,,,,,,,
,,,,,,,,,,,,,,4,FF,,5,1.717185,,,,,,,,,,,,,,,,,,,,,,,,,,,,,607a51b65477bb1614145a9c,60cc88e9cc21b78536cf56ad,2021-06-18_07h52.26.227,FlowerSimilarity_Experiment,2021.1.2,MacIntel,59.94125757,60cc862d586bafd4cd2fa98a,,,,,,96.03552246,-54.51812744,1,0,1,response3disk,2,12,11.07470703,7.372009277,1,0,1,rectangle,11.07470703,7.372009277,1,0,1,,5,"[166,279,168,210,93,74,168,68,318,133,69,66,14,207,252,13,284,141,160,61]",11.07470703,7.372009277,1,0,1,0,11,11,33,1,,,,,,,,,,,,,,,,,,,,,,,
,,,,,,,,,,,,,,1,FF,,4,5.23764,,,,,,,,,,,,,,,,,,,,,,,,,,,,,607a51b65477bb1614145a9c,60cc88e9cc21b78536cf56ad,2021-06-18_07h52.26.227,FlowerSimilarity_Experiment,2021.1.2,MacIntel,59.94125757,60cc862d586bafd4cd2fa98a,,,,,,77.78820801,-85.42169189,1,0,1,response3disk,2,13,32.3770752,-17.61676025,1,0,1,rectangle,32.58056641,-18.22717285,0,0,1,5,1,"[166,279,168,210,93,74,168,68,318,133,69,66,14,207,252,13,284,141,160,61]",32.58056641,-18.22717285,1,0,1,0,12,12,31,1,response3disk_3,rectangle,,,,,,,,,,,,,,,,,,,,,
,,,,,,,,,,,,,,7,FF,,5,0.541145,,,,,,,,,,,,,,,,,,,,,,,,,,,,,607a51b65477bb1614145a9c,60cc88e9cc21b78536cf56ad,2021-06-18_07h52.26.227,FlowerSimilarity_Experiment,2021.1.2,MacIntel,59.94125757,60cc862d586bafd4cd2fa98a,,,,,,32.58056641,-18.22717285,0,0,1,response3disk,1,14,-11.94317627,-11.04730225,1,0,1,rectangle,66.61694336,42.0357666,1,0,1,6,6,"[166,279,168,210,93,74,168,68,318,133,69,66,14,207,252,13,284,141,160,61]",-22.83044434,-11.77062988,1,0,1,0,13,13,4,1,response1disk_3,rectangle,,,,,,,,,,,,,,,,,,,,,
,,,,,,,,,,,,,,2,FF,,3,1.252425,,,,,,,,,,,,,,,,,,,,,,,,,,,,,607a51b65477bb1614145a9c,60cc88e9cc21b78536cf56ad,2021-06-18_07h52.26.227,FlowerSimilarity_Experiment,2021.1.2,MacIntel,59.94125757,60cc862d586bafd4cd2fa98a,,,,,,-50.81054688,-123.0533447,1,0,1,response5disk,5,15,7.468383789,-9.537902832,1,0,1,rectangle,7.468383789,-9.537902832,1,0,1,6,1,"[166,279,168,210,93,74,168,68,318,133,69,66,14,207,252,13,284,141,160,61]",7.468383789,-9.537902832,1,0,1,0,14,14,19,1,,,,,,,,,,,,,,,,,,,,,,,
,,,,,,,,,,,,,,4,FF,,0,2.569085,,,,,,,,,,,,,,,,,,,,,,,,,,,,,607a51b65477bb1614145a9c,60cc88e9cc21b78536cf56ad,2021-06-18_07h52.26.227,FlowerSimilarity_Experiment,2021.1.2,MacIntel,59.94125757,60cc862d586bafd4cd2fa98a,,,,,,-70.83911133,80.68386841,1,0,1,response7disk,6,16,-28.38623047,-1.411376953,1,0,1,rectangle,-28.38623047,-1.411376953,1,0,1,6,3,"[166,279,168,210,93,74,168,68,318,133,69,66,14,207,252,13,284,141,160,61]",-28.38623047,-1.411376953,1,0,1,0,15,15,25,1,,,,,,,,,,,,,,,,,,,,,,,
,,,,,,,,,,,,,,7,FF,,0,2.470185,,,,,,,,,,,,,,,,,,,,,,,,,,,,,607a51b65477bb1614145a9c,60cc88e9cc21b78536cf56ad,2021-06-18_07h52.26.227,FlowerSimilarity_Experiment,2021.1.2,MacIntel,59.94125757,60cc862d586bafd4cd2fa98a,,,,,,-51.97302246,99.8302002,1,0,1,response7disk,6,17,-12.0647583,-8.882080078,1,0,1,rectangle,-12.0647583,-8.882080078,1,0,1,6,1,"[166,279,168,210,93,74,168,68,318,133,69,66,14,207,252,13,284,141,160,61]",-12.0647583,-8.882080078,1,0,1,0,16,16,21,1,,,,,,,,,,,,,,,,,,,,,,,
,,,,,,,,,,,,,,2,FF,,7,1.085035,,,,,,,,,,,,,,,,,,,,,,,,,,,,,607a51b65477bb1614145a9c,60cc88e9cc21b78536cf56ad,2021-06-18_07h52.26.227,FlowerSimilarity_Experiment,2021.1.2,MacIntel,59.94125757,60cc862d586bafd4cd2fa98a,,,,,,54.09643555,91.74505615,1,0,1,response1disk,2,18,21.5345459,-5.642578125,1,0,1,rectangle,21.5345459,-5.642578125,1,0,1,6,5,"[166,279,168,210,93,74,168,68,318,133,69,66,14,207,252,13,284,141,160,61]",21.5345459,-5.642578125,1,0,1,0,17,17,44,1,,,,,,,,,,,,,,,,,,,,,,,
,,,,,,,,,,,,,,2,FF,,5,2.552435,,,,,,,,,,,,,,,,,,,,,,,,,,,,,607a51b65477bb1614145a9c,60cc88e9cc21b78536cf56ad,2021-06-18_07h52.26.227,FlowerSimilarity_Experiment,2021.1.2,MacIntel,59.94125757,60cc862d586bafd4cd2fa98a,,,,,,88.77392578,-52.99047852,1,0,1,response3disk,4,19,-19.56921387,4.564086914,1,0,1,rectangle,-19.56921387,4.564086914,1,0,1,6,1,"[166,279,168,210,93,74,168,68,318,133,69,66,14,207,252,13,284,141,160,61]",-19.56921387,4.564086914,1,0,1,0,18,18,38,1,,,,,,,,,,,,,,,,,,,,,,,
,,,,,,,,,,,,,,5,FF,,4,1.267825,,,,,,,,,,,,,,,,,,,,,,,,,,,,,607a51b65477bb1614145a9c,60cc88e9cc21b78536cf56ad,2021-06-18_07h52.26.227,FlowerSimilarity_Experiment,2021.1.2,MacIntel,59.94125757,60cc862d586bafd4cd2fa98a,,,,,,26.84417725,-87.5567627,1,0,1,response3disk,7,20,10.88031006,-16.34838867,1,0,1,rectangle,10.88031006,-16.34838867,1,0,1,6,4,"[166,279,168,210,93,74,168,68,318,133,69,66,14,207,252,13,284,141,160,61]",10.88031006,-16.34838867,1,0,1,0,19,19,8,1,,,,,,,,,,,,,,,,,,,,,,,
,,,,,,,,,,,,,,3,FF,,7,0.94985,,,,,,,,,,,,,,,,,,,,,,,,,,,,,607a51b65477bb1614145a9c,60cc88e9cc21b78536cf56ad,2021-06-18_07h52.26.227,FlowerSimilarity_Experiment,2021.1.2,MacIntel,59.94125757,60cc862d586bafd4cd2fa98a,,,,,,53.77923584,91.37167358,1,0,1,response1disk,3,21,33.42584229,2.447021484,1,0,1,rectangle,33.42584229,2.447021484,1,0,1,6,5,"[166,279,168,210,93,74,168,68,318,133,69,66,14,207,252,13,284,141,160,61]",33.42584229,2.447021484,1,0,1,0,20,20,1,1,,,,,,,,,,,,,,,,,,,,,,,
,,,,,,,,,,,,,,4,FF,,5,1.842315,,,,,,,,,,,,,,,,,,,,,,,,,,,,,607a51b65477bb1614145a9c,60cc88e9cc21b78536cf56ad,2021-06-18_07h52.26.227,FlowerSimilarity_Experiment,2021.1.2,MacIntel,59.94125757,60cc862d586bafd4cd2fa98a,,,,,,91.36157227,-41.60211182,1,0,1,response3disk,1,22,3.741027832,10.32171631,1,0,1,rectangle,3.741027832,10.32171631,1,0,1,6,7,"[166,279,168,210,93,74,168,68,318,133,69,66,14,207,252,13,284,141,160,61]",3.741027832,10.32171631,1,0,1,0,21,21,0,1,,,,,,,,,,,,,,,,,,,,,,,
,,,,,,,,,,,,,,5,FF,,7,0.98365,,,,,,,,,,,,,,,,,,,,,,,,,,,,,607a51b65477bb1614145a9c,60cc88e9cc21b78536cf56ad,2021-06-18_07h52.26.227,FlowerSimilarity_Experiment,2021.1.2,MacIntel,59.94125757,60cc862d586bafd4cd2fa98a,,,,,,30.14562988,86.74050903,1,0,1,response1disk,5,23,6.69152832,-6.996032715,1,0,1,rectangle,6.69152832,-6.996032715,1,0,1,6,5,"[166,279,168,210,93,74,168,68,318,133,69,66,14,207,252,13,284,141,160,61]",6.69152832,-6.996032715,1,0,1,0,22,22,22,1,,,,,,,,,,,,,,,,,,,,,,,
,,,,,,,,,,,,,,3,FF,,4,1.86823,,,,,,,,,,,,,,,,,,,,,,,,,,,,,607a51b65477bb1614145a9c,60cc88e9cc21b78536cf56ad,2021-06-18_07h52.26.227,FlowerSimilarity_Experiment,2021.1.2,MacIntel,59.94125757,60cc862d586bafd4cd2fa98a,,,,,,27.46234131,-97.737854,1,0,1,response3disk,2,24,10.13867188,-2.479614258,1,0,1,rectangle,10.13867188,-2.479614258,1,0,1,6,1,"[166,279,168,210,93,74,168,68,318,133,69,66,14,207,252,13,284,141,160,61]",10.13867188,-2.479614258,1,0,1,0,23,23,35,1,,,,,,,,,,,,,,,,,,,,,,,
,,,,,,,,,,,,,,6,FF,,2,1.701375,,,,,,,,,,,,,,,,,,,,,,,,,,,,,607a51b65477bb1614145a9c,60cc88e9cc21b78536cf56ad,2021-06-18_07h52.26.227,FlowerSimilarity_Experiment,2021.1.2,MacIntel,59.94125757,60cc862d586bafd4cd2fa98a,,,,,,-89.40441895,-36.70043945,1,0,1,response5disk,5,25,13.50531006,-13.89562988,1,0,1,rectangle,13.50531006,-13.89562988,1,0,1,6,4,"[166,279,168,210,93,74,168,68,318,133,69,66,14,207,252,13,284,141,160,61]",13.50531006,-13.89562988,1,0,1,0,24,24,14,1,,,,,,,,,,,,,,,,,,,,,,,
,,,,,,,,,,,,,,7,FF,,4,1.81875,,,,,,,,,,,,,,,,,,,,,,,,,,,,,607a51b65477bb1614145a9c,60cc88e9cc21b78536cf56ad,2021-06-18_07h52.26.227,FlowerSimilarity_Experiment,2021.1.2,MacIntel,59.94125757,60cc862d586bafd4cd2fa98a,,,,,,51.9309082,-105.8774414,1,0,1,response3disk,2,26,-10.61767578,6.583740234,1,0,1,rectangle,-10.61767578,6.583740234,1,0,1,6,0,"[166,279,168,210,93,74,168,68,318,133,69,66,14,207,252,13,284,141,160,61]",-10.61767578,6.583740234,1,0,1,0,25,25,12,1,,,,,,,,,,,,,,,,,,,,,,,
,,,,,,,,,,,,,,3,FF,,2,1.68778,,,,,,,,,,,,,,,,,,,,,,,,,,,,,607a51b65477bb1614145a9c,60cc88e9cc21b78536cf56ad,2021-06-18_07h52.26.227,FlowerSimilarity_Experiment,2021.1.2,MacIntel,59.94125757,60cc862d586bafd4cd2fa98a,,,,,,-90.840271,-49.95300293,1,0,1,response5disk,5,27,-24.02233887,-13.56494141,1,0,1,rectangle,-24.02233887,-13.56494141,1,0,1,6,7,"[166,279,168,210,93,74,168,68,318,133,69,66,14,207,252,13,284,141,160,61]",-24.02233887,-13.56494141,1,0,1,0,26,26,47,1,,,,,,,,,,,,,,,,,,,,,,,
,,,,,,,,,,,,,,5,FF,,3,1.601305,,,,,,,,,,,,,,,,,,,,,,,,,,,,,607a51b65477bb1614145a9c,60cc88e9cc21b78536cf56ad,2021-06-18_07h52.26.227,FlowerSimilarity_Experiment,2021.1.2,MacIntel,59.94125757,60cc862d586bafd4cd2fa98a,,,,,,-59.97241211,-96.2555542,1,0,1,response5disk,1,28,-16.0703125,-2.282287598,1,0,1,rectangle,-16.0703125,-2.282287598,1,0,1,6,4,"[166,279,168,210,93,74,168,68,318,133,69,66,14,207,252,13,284,141,160,61]",-16.0703125,-2.282287598,1,0,1,0,27,27,45,1,,,,,,,,,,,,,,,,,,,,,,,
,,,,,,,,,,,,,,2,FF,,1,1.352255,,,,,,,,,,,,,,,,,,,,,,,,,,,,,607a51b65477bb1614145a9c,60cc88e9cc21b78536cf56ad,2021-06-18_07h52.26.227,FlowerSimilarity_Experiment,2021.1.2,MacIntel,59.94125757,60cc862d586bafd4cd2fa98a,,,,,,-109.1950073,39.74969482,1,0,1,response7disk,6,29,-10.66271973,-15.81298828,1,0,1,rectangle,-10.66271973,-15.81298828,1,0,1,6,2,"[166,279,168,210,93,74,168,68,318,133,69,66,14,207,252,13,284,141,160,61]",-10.66271973,-15.81298828,1,0,1,0,28,28,13,1,,,,,,,,,,,,,,,,,,,,,,,
,,,,,,,,,,,,,,4,FF,,2,1.784765,,,,,,,,,,,,,,,,,,,,,,,,,,,,,607a51b65477bb1614145a9c,60cc88e9cc21b78536cf56ad,2021-06-18_07h52.26.227,FlowerSimilarity_Experiment,2021.1.2,MacIntel,59.94125757,60cc862d586bafd4cd2fa98a,,,,,,-105.7799072,-59.68157959,1,0,1,response5disk,5,30,-12.83758545,-0.232971191,1,0,1,rectangle,-12.83758545,-0.232971191,1,0,1,6,0,"[166,279,168,210,93,74,168,68,318,133,69,66,14,207,252,13,284,141,160,61]",-12.83758545,-0.232971191,1,0,1,0,29,29,18,1,,,,,,,,,,,,,,,,,,,,,,,
,,,,,,,,,,,,,,7,FF,,7,1.1523,,,,,,,,,,,,,,,,,,,,,,,,,,,,,607a51b65477bb1614145a9c,60cc88e9cc21b78536cf56ad,2021-06-18_07h52.26.227,FlowerSimilarity_Experiment,2021.1.2,MacIntel,59.94125757,60cc862d586bafd4cd2fa98a,,,,,,31.53417969,80.97155762,1,0,1,response1disk,3,31,11.97888184,9.585449219,1,0,1,rectangle,11.97888184,9.585449219,1,0,1,6,3,"[166,279,168,210,93,74,168,68,318,133,69,66,14,207,252,13,284,141,160,61]",11.97888184,9.585449219,1,0,1,0,30,30,9,1,,,,,,,,,,,,,,,,,,,,,,,
,,,,,,,,,,,,,,6,FF,,2,1.753105,,,,,,,,,,,,,,,,,,,,,,,,,,,,,607a51b65477bb1614145a9c,60cc88e9cc21b78536cf56ad,2021-06-18_07h52.26.227,FlowerSimilarity_Experiment,2021.1.2,MacIntel,59.94125757,60cc862d586bafd4cd2fa98a,,,,,,-78.234375,-66.59429932,1,0,1,response5disk,2,32,-10.51269531,1.938842773,1,0,1,rectangle,-10.51269531,1.938842773,1,0,1,6,2,"[166,279,168,210,93,74,168,68,318,133,69,66,14,207,252,13,284,141,160,61]",-10.51269531,1.938842773,1,0,1,0,31,31,11,1,,,,,,,,,,,,,,,,,,,,,,,
,,,,,,,,,,,,,,3,FF,,2,1.71933,,,,,,,,,,,,,,,,,,,,,,,,,,,,,607a51b65477bb1614145a9c,60cc88e9cc21b78536cf56ad,2021-06-18_07h52.26.227,FlowerSimilarity_Experiment,2021.1.2,MacIntel,59.94125757,60cc862d586bafd4cd2fa98a,,,,,,-103.4517822,-27.48516846,1,0,1,response5disk,4,33,-32.75439453,-5.802001953,1,0,1,rectangle,-32.75439453,-5.802001953,1,0,1,6,6,"[166,279,168,210,93,74,168,68,318,133,69,66,14,207,252,13,284,141,160,61]",-32.75439453,-5.802001953,1,0,1,0,32,32,26,1,,,,,,,,,,,,,,,,,,,,,,,
,,,,,,,,,,,,,,5,FF,,3,1.85143,,,,,,,,,,,,,,,,,,,,,,,,,,,,,607a51b65477bb1614145a9c,60cc88e9cc21b78536cf56ad,2021-06-18_07h52.26.227,FlowerSimilarity_Experiment,2021.1.2,MacIntel,59.94125757,60cc862d586bafd4cd2fa98a,,,,,,-54.96008301,-90.12353516,1,0,1,response5disk,6,34,-15.63079834,-9.138549805,1,0,1,rectangle,-15.63079834,-9.138549805,1,0,1,6,6,"[166,279,168,210,93,74,168,68,318,133,69,66,14,207,252,13,284,141,160,61]",-15.63079834,-9.138549805,1,0,1,0,33,33,17,1,,,,,,,,,,,,,,,,,,,,,,,
,,,,,,,,,,,,,,2,FF,,3,1.35124,,,,,,,,,,,,,,,,,,,,,,,,,,,,,607a51b65477bb1614145a9c,60cc88e9cc21b78536cf56ad,2021-06-18_07h52.26.227,FlowerSimilarity_Experiment,2021.1.2,MacIntel,59.94125757,60cc862d586bafd4cd2fa98a,,,,,,-66.37341309,-84.36358643,1,0,1,response5disk,3,35,-17.98736572,3.439208984,1,0,1,rectangle,-17.98736572,3.439208984,1,0,1,6,7,"[166,279,168,210,93,74,168,68,318,133,69,66,14,207,252,13,284,141,160,61]",-17.98736572,3.439208984,1,0,1,0,34,34,36,1,,,,,,,,,,,,,,,,,,,,,,,
,,,,,,,,,,,,,,7,FF,,7,0.71645,,,,,,,,,,,,,,,,,,,,,,,,,,,,,607a51b65477bb1614145a9c,60cc88e9cc21b78536cf56ad,2021-06-18_07h52.26.227,FlowerSimilarity_Experiment,2021.1.2,MacIntel,59.94125757,60cc862d586bafd4cd2fa98a,,,,,,44.73535156,111.3828125,1,0,1,response1disk,7,36,-6.061157227,6.157104492,1,0,1,rectangle,-6.061157227,6.157104492,1,0,1,6,3,"[166,279,168,210,93,74,168,68,318,133,69,66,14,207,252,13,284,141,160,61]",-6.061157227,6.157104492,1,0,1,0,35,35,3,1,,,,,,,,,,,,,,,,,,,,,,,
,,,,,,,,,,,,,,1,FF,,3,2.00321,,,,,,,,,,,,,,,,,,,,,,,,,,,,,607a51b65477bb1614145a9c,60cc88e9cc21b78536cf56ad,2021-06-18_07h52.26.227,FlowerSimilarity_Experiment,2021.1.2,MacIntel,59.94125757,60cc862d586bafd4cd2fa98a,,,,,,-42.0177002,-97.34228516,1,0,1,response5disk,6,37,11.08557129,-11.61474609,1,0,1,rectangle,11.08557129,-11.61474609,1,0,1,6,1,"[166,279,168,210,93,74,168,68,318,133,69,66,14,207,252,13,284,141,160,61]",11.08557129,-11.61474609,1,0,1,0,36,36,30,1,,,,,,,,,,,,,,,,,,,,,,,
,,,,,,,,,,,,,,3,FF,,2,1.401485,,,,,,,,,,,,,,,,,,,,,,,,,,,,,607a51b65477bb1614145a9c,60cc88e9cc21b78536cf56ad,2021-06-18_07h52.26.227,FlowerSimilarity_Experiment,2021.1.2,MacIntel,59.94125757,60cc862d586bafd4cd2fa98a,,,,,,-97.10632324,-53.1416626,1,0,1,response5disk,1,38,-20.42071533,-14.27587891,1,0,1,rectangle,-20.42071533,-14.27587891,1,0,1,6,5,"[166,279,168,210,93,74,168,68,318,133,69,66,14,207,252,13,284,141,160,61]",-20.42071533,-14.27587891,1,0,1,0,37,37,6,1,,,,,,,,,,,,,,,,,,,,,,,
,,,,,,,,,,,,,,4,FF,,7,0.952035,,,,,,,,,,,,,,,,,,,,,,,,,,,,,607a51b65477bb1614145a9c,60cc88e9cc21b78536cf56ad,2021-06-18_07h52.26.227,FlowerSimilarity_Experiment,2021.1.2,MacIntel,59.94125757,60cc862d586bafd4cd2fa98a,,,,,,46.23840332,117.4160461,1,0,1,response1disk,4,39,-13.56378174,-9.934204102,1,0,1,rectangle,-13.56378174,-9.934204102,1,0,1,6,5,"[166,279,168,210,93,74,168,68,318,133,69,66,14,207,252,13,284,141,160,61]",-13.56378174,-9.934204102,1,0,1,0,38,38,37,1,,,,,,,,,,,,,,,,,,,,,,,
,,,,,,,,,,,,,,6,FF,,2,1.792685,,,,,,,,,,,,,,,,,,,,,,,,,,,,,607a51b65477bb1614145a9c,60cc88e9cc21b78536cf56ad,2021-06-18_07h52.26.227,FlowerSimilarity_Experiment,2021.1.2,MacIntel,59.94125757,60cc862d586bafd4cd2fa98a,,,,,,-97.77539063,-23.86834717,1,0,1,response5disk,3,40,-43.14331055,-8.189331055,1,0,1,rectangle,-43.14331055,-8.189331055,1,0,1,6,1,"[166,279,168,210,93,74,168,68,318,133,69,66,14,207,252,13,284,141,160,61]",-43.14331055,-8.189331055,1,0,1,0,39,39,10,1,,,,,,,,,,,,,,,,,,,,,,,
,,,,,,,,,,,,,,1,FF,,2,1.00041,,,,,,,,,,,,,,,,,,,,,,,,,,,,,607a51b65477bb1614145a9c,60cc88e9cc21b78536cf56ad,2021-06-18_07h52.26.227,FlowerSimilarity_Experiment,2021.1.2,MacIntel,59.94125757,60cc862d586bafd4cd2fa98a,,,,,,-117.0772705,-50.48742676,1,0,1,response5disk,5,41,-2.128601074,-21.01611328,1,0,1,rectangle,-2.128601074,-21.01611328,1,0,1,6,3,"[166,279,168,210,93,74,168,68,318,133,69,66,14,207,252,13,284,141,160,61]",-2.128601074,-21.01611328,1,0,1,0,40,40,2,1,,,,,,,,,,,,,,,,,,,,,,,
,,,,,,,,,,,,,,6,FF,,2,0.91826,,,,,,,,,,,,,,,,,,,,,,,,,,,,,607a51b65477bb1614145a9c,60cc88e9cc21b78536cf56ad,2021-06-18_07h52.26.227,FlowerSimilarity_Experiment,2021.1.2,MacIntel,59.94125757,60cc862d586bafd4cd2fa98a,,,,,,-107.0432129,-67.8951416,1,0,1,response5disk,4,42,-16.27209473,-2.681396484,1,0,1,rectangle,-16.27209473,-2.681396484,1,0,1,6,0,"[166,279,168,210,93,74,168,68,318,133,69,66,14,207,252,13,284,141,160,61]",-16.27209473,-2.681396484,1,0,1,0,41,41,23,1,,,,,,,,,,,,,,,,,,,,,,,
,,,,,,,,,,,,,,3,FF,,0,1.83449,,,,,,,,,,,,,,,,,,,,,,,,,,,,,607a51b65477bb1614145a9c,60cc88e9cc21b78536cf56ad,2021-06-18_07h52.26.227,FlowerSimilarity_Experiment,2021.1.2,MacIntel,59.94125757,60cc862d586bafd4cd2fa98a,,,,,,-37.7454834,84.73013306,1,0,1,response7disk,6,43,-20.85253906,9.293334961,1,0,1,rectangle,-20.85253906,9.293334961,1,0,1,6,0,"[166,279,168,210,93,74,168,68,318,133,69,66,14,207,252,13,284,141,160,61]",-20.85253906,9.293334961,1,0,1,0,42,42,20,1,,,,,,,,,,,,,,,,,,,,,,,
,,,,,,,,,,,,,,6,FF,,3,1.809685,,,,,,,,,,,,,,,,,,,,,,,,,,,,,607a51b65477bb1614145a9c,60cc88e9cc21b78536cf56ad,2021-06-18_07h52.26.227,FlowerSimilarity_Experiment,2021.1.2,MacIntel,59.94125757,60cc862d586bafd4cd2fa98a,,,,,,-50.54077148,-112.1092529,1,0,1,response5disk,1,44,-12.14227295,-5.534912109,1,0,1,rectangle,-12.14227295,-5.534912109,1,0,1,6,4,"[166,279,168,210,93,74,168,68,318,133,69,66,14,207,252,13,284,141,160,61]",-12.14227295,-5.534912109,1,0,1,0,43,43,39,1,,,,,,,,,,,,,,,,,,,,,,,
,,,,,,,,,,,,,,6,FF,,2,1.26753,,,,,,,,,,,,,,,,,,,,,,,,,,,,,607a51b65477bb1614145a9c,60cc88e9cc21b78536cf56ad,2021-06-18_07h52.26.227,FlowerSimilarity_Experiment,2021.1.2,MacIntel,59.94125757,60cc862d586bafd4cd2fa98a,,,,,,-110.1569824,-55.4520874,1,0,1,response5disk,7,45,-3.729064941,4.791015625,1,0,1,rectangle,-3.729064941,4.791015625,1,0,1,6,5,"[166,279,168,210,93,74,168,68,318,133,69,66,14,207,252,13,284,141,160,61]",-3.729064941,4.791015625,1,0,1,0,44,44,32,1,,,,,,,,,,,,,,,,,,,,,,,
,,,,,,,,,,,,,,3,FF,,7,1.285865,,,,,,,,,,,,,,,,,,,,,,,,,,,,,607a51b65477bb1614145a9c,60cc88e9cc21b78536cf56ad,2021-06-18_07h52.26.227,FlowerSimilarity_Experiment,2021.1.2,MacIntel,59.94125757,60cc862d586bafd4cd2fa98a,,,,,,29.63977051,92.35559082,1,0,1,response1disk,7,46,-26.48187256,-11.26098633,1,0,1,rectangle,-26.48187256,-11.26098633,1,0,1,6,7,"[166,279,168,210,93,74,168,68,318,133,69,66,14,207,252,13,284,141,160,61]",-26.48187256,-11.26098633,1,0,1,0,45,45,29,1,,,,,,,,,,,,,,,,,,,,,,,
,,,,,,,,,,,,,,4,FF,,4,1.58611,,,,,,,,,,,,,,,,,,,,,,,,,,,,,607a51b65477bb1614145a9c,60cc88e9cc21b78536cf56ad,2021-06-18_07h52.26.227,FlowerSimilarity_Experiment,2021.1.2,MacIntel,59.94125757,60cc862d586bafd4cd2fa98a,,,,,,53.03820801,-119.6008911,1,0,1,response3disk,7,47,3.405334473,-4.383422852,1,0,1,rectangle,3.405334473,-4.383422852,1,0,1,6,7,"[166,279,168,210,93,74,168,68,318,133,69,66,14,207,252,13,284,141,160,61]",3.405334473,-4.383422852,1,0,1,0,46,46,16,1,,,,,,,,,,,,,,,,,,,,,,,
,,,,,,,,,,,,,,6,FF,,7,0.70084,,,,,,,,,,,,,,,,,,,,,,,,,,,,,607a51b65477bb1614145a9c,60cc88e9cc21b78536cf56ad,2021-06-18_07h52.26.227,FlowerSimilarity_Experiment,2021.1.2,MacIntel,59.94125757,60cc862d586bafd4cd2fa98a,,,,,,58.04931641,117.87677,1,0,1,response1disk,6,48,16.1081543,0.135681152,1,0,1,rectangle,16.1081543,0.135681152,1,0,1,6,5,"[166,279,168,210,93,74,168,68,318,133,69,66,14,207,252,13,284,141,160,61]",16.1081543,0.135681152,1,0,1,0,47,47,46,1,,,,,,,,,,,,,,,,,,,,,,,
,,,,,,,,,,,,,,1,FF,,2,1.168465,,,,,,,,,,,,,,,,,,,,,,,,,,,,,607a51b65477bb1614145a9c,60cc88e9cc21b78536cf56ad,2021-06-18_07h52.26.227,FlowerSimilarity_Experiment,2021.1.2,MacIntel,59.94125757,60cc862d586bafd4cd2fa98a,,,,,,-103.7564697,-42.34222412,1,0,1,response5disk,4,49,-39.83843994,-8.02355957,1,0,1,rectangle,-39.83843994,-8.02355957,1,0,1,6,4,"[166,279,168,210,93,74,168,68,318,133,69,66,14,207,252,13,284,141,160,61]",-39.83843994,-8.02355957,1,0,1,0,48,48,27,1,,,,,,,,,,,,,,,,,,,,,,,
,,,,,,,,,,,,,,,,,,,,,,,,,,,,,,,,,,,,,,,,,,,,,,,607a51b65477bb1614145a9c,60cc88e9cc21b78536cf56ad,2021-06-18_07h52.26.227,FlowerSimilarity_Experiment,2021.1.2,MacIntel,59.94125757,60cc862d586bafd4cd2fa98a,,,,,,,,,,,,,,,,,,,,,,,,,,,,,,,,,,,,,,,,0,0,0,0,1,,,,,,,,,,,,,,,,
,,,,,,,,,,,,,,1,FF,,2,1.59971,,,,,,,,,,,,,,,,,,,,,,,,,,,,,607a51b65477bb1614145a9c,60cc88e9cc21b78536cf56ad,2021-06-18_07h52.26.227,FlowerSimilarity_Experiment,2021.1.2,MacIntel,59.94125757,60cc862d586bafd4cd2fa98a,,,,,,-78.07556152,-41.19250488,1,0,1,response5disk,3,50,-29.93621826,-11.56036377,1,0,1,rectangle,-29.93621826,-11.56036377,1,0,1,6,0,"[166,279,168,210,93,74,168,68,318,133,69,66,14,207,252,13,284,141,160,61]",-29.93621826,-11.56036377,1,0,1,0,0,0,41,1,,,,,,,,,,,,,,,,,,,,,,,
,,,,,,,,,,,,,,5,FF,,2,0.934195,,,,,,,,,,,,,,,,,,,,,,,,,,,,,607a51b65477bb1614145a9c,60cc88e9cc21b78536cf56ad,2021-06-18_07h52.26.227,FlowerSimilarity_Experiment,2021.1.2,MacIntel,59.94125757,60cc862d586bafd4cd2fa98a,,,,,,-91.89929199,-45.39642334,1,0,1,response5disk,3,51,-18.99481201,-12.1161499,1,0,1,rectangle,-18.99481201,-12.1161499,1,0,1,6,4,"[166,279,168,210,93,74,168,68,318,133,69,66,14,207,252,13,284,141,160,61]",-18.99481201,-12.1161499,1,0,1,0,1,1,24,1,,,,,,,,,,,,,,,,,,,,,,,
,,,,,,,,,,,,,,1,FF,,1,1.343525,,,,,,,,,,,,,,,,,,,,,,,,,,,,,607a51b65477bb1614145a9c,60cc88e9cc21b78536cf56ad,2021-06-18_07h52.26.227,FlowerSimilarity_Experiment,2021.1.2,MacIntel,59.94125757,60cc862d586bafd4cd2fa98a,,,,,,-114.197937,30.074646,1,0,1,response7disk,7,52,-11.93450928,-9.028991699,1,0,1,rectangle,-11.93450928,-9.028991699,1,0,1,6,6,"[166,279,168,210,93,74,168,68,318,133,69,66,14,207,252,13,284,141,160,61]",-11.93450928,-9.028991699,1,0,1,0,2,2,43,1,,,,,,,,,,,,,,,,,,,,,,,
,,,,,,,,,,,,,,7,FF,,3,1.1173,,,,,,,,,,,,,,,,,,,,,,,,,,,,,607a51b65477bb1614145a9c,60cc88e9cc21b78536cf56ad,2021-06-18_07h52.26.227,FlowerSimilarity_Experiment,2021.1.2,MacIntel,59.94125757,60cc862d586bafd4cd2fa98a,,,,,,-53.82763672,-99.67248535,1,0,1,response5disk,5,53,-2.585876465,0.117492676,1,0,1,rectangle,-2.585876465,0.117492676,1,0,1,6,3,"[166,279,168,210,93,74,168,68,318,133,69,66,14,207,252,13,284,141,160,61]",-2.585876465,0.117492676,1,0,1,0,3,3,40,1,,,,,,,,,,,,,,,,,,,,,,,
,,,,,,,,,,,,,,2,FF,,2,1.702535,,,,,,,,,,,,,,,,,,,,,,,,,,,,,607a51b65477bb1614145a9c,60cc88e9cc21b78536cf56ad,2021-06-18_07h52.26.227,FlowerSimilarity_Experiment,2021.1.2,MacIntel,59.94125757,60cc862d586bafd4cd2fa98a,,,,,,-94.1763916,-41.78149414,1,0,1,response5disk,1,54,-15.29052734,-7.221984863,1,0,1,rectangle,-15.29052734,-7.221984863,1,0,1,6,2,"[166,279,168,210,93,74,168,68,318,133,69,66,14,207,252,13,284,141,160,61]",-15.29052734,-7.221984863,1,0,1,0,4,4,42,1,,,,,,,,,,,,,,,,,,,,,,,
,,,,,,,,,,,,,,7,FF,,2,1.38537,,,,,,,,,,,,,,,,,,,,,,,,,,,,,607a51b65477bb1614145a9c,60cc88e9cc21b78536cf56ad,2021-06-18_07h52.26.227,FlowerSimilarity_Experiment,2021.1.2,MacIntel,59.94125757,60cc862d586bafd4cd2fa98a,,,,,,-95.83251953,-56.45751953,1,0,1,response5disk,4,55,-12.24481201,-5.740905762,1,0,1,rectangle,-12.24481201,-5.740905762,1,0,1,6,6,"[166,279,168,210,93,74,168,68,318,133,69,66,14,207,252,13,284,141,160,61]",-12.24481201,-5.740905762,1,0,1,0,5,5,48,1,,,,,,,,,,,,,,,,,,,,,,,
,,,,,,,,,,,,,,1,FF,,7,0.81413,,,,,,,,,,,,,,,,,,,,,,,,,,,,,607a51b65477bb1614145a9c,60cc88e9cc21b78536cf56ad,2021-06-18_07h52.26.227,FlowerSimilarity_Experiment,2021.1.2,MacIntel,59.94125757,60cc862d586bafd4cd2fa98a,,,,,,49.99700928,110.2481079,1,0,1,response1disk,1,56,-10.18701172,0.731811523,1,0,1,rectangle,-10.18701172,0.731811523,1,0,1,6,2,"[166,279,168,210,93,74,168,68,318,133,69,66,14,207,252,13,284,141,160,61]",-10.18701172,0.731811523,1,0,1,0,6,6,7,1,,,,,,,,,,,,,,,,,,,,,,,
,,,,,,,,,,,,,,4,FF,,3,1.752275,,,,,,,,,,,,,,,,,,,,,,,,,,,,,607a51b65477bb1614145a9c,60cc88e9cc21b78536cf56ad,2021-06-18_07h52.26.227,FlowerSimilarity_Experiment,2021.1.2,MacIntel,59.94125757,60cc862d586bafd4cd2fa98a,,,,,,-51.21142578,-103.1022949,1,0,1,response5disk,3,57,0.325805664,-1.760620117,1,0,1,rectangle,0.325805664,-1.760620117,1,0,1,6,2,"[166,279,168,210,93,74,168,68,318,133,69,66,14,207,252,13,284,141,160,61]",0.325805664,-1.760620117,1,0,1,0,7,7,34,1,,,,,,,,,,,,,,,,,,,,,,,
,,,,,,,,,,,,,,5,FF,,2,1.16933,,,,,,,,,,,,,,,,,,,,,,,,,,,,,607a51b65477bb1614145a9c,60cc88e9cc21b78536cf56ad,2021-06-18_07h52.26.227,FlowerSimilarity_Experiment,2021.1.2,MacIntel,59.94125757,60cc862d586bafd4cd2fa98a,,,,,,-112.8068848,-32.58551025,1,0,1,response5disk,4,58,-4.62109375,-8.496765137,1,0,1,rectangle,-4.62109375,-8.496765137,1,0,1,6,1,"[166,279,168,210,93,74,168,68,318,133,69,66,14,207,252,13,284,141,160,61]",-4.62109375,-8.496765137,1,0,1,0,8,8,5,1,,,,,,,,,,,,,,,,,,,,,,,
,,,,,,,,,,,,,,5,FF,,4,1.31815,,,,,,,,,,,,,,,,,,,,,,,,,,,,,607a51b65477bb1614145a9c,60cc88e9cc21b78536cf56ad,2021-06-18_07h52.26.227,FlowerSimilarity_Experiment,2021.1.2,MacIntel,59.94125757,60cc862d586bafd4cd2fa98a,,,,,,65.75683594,-103.5717163,1,0,1,response3disk,2,59,26.14923096,3.647277832,1,0,1,rectangle,26.14923096,3.647277832,1,0,1,6,1,"[166,279,168,210,93,74,168,68,318,133,69,66,14,207,252,13,284,141,160,61]",26.14923096,3.647277832,1,0,1,0,9,9,28,1,,,,,,,,,,,,,,,,,,,,,,,
,,,,,,,,,,,,,,2,FF,,4,1.301895,,,,,,,,,,,,,,,,,,,,,,,,,,,,,607a51b65477bb1614145a9c,60cc88e9cc21b78536cf56ad,2021-06-18_07h52.26.227,FlowerSimilarity_Experiment,2021.1.2,MacIntel,59.94125757,60cc862d586bafd4cd2fa98a,,,,,,60.72149658,-80.70355225,1,0,1,response3disk,7,60,26.44567871,1.356872559,1,0,1,rectangle,26.44567871,1.356872559,1,0,1,6,2,"[166,279,168,210,93,74,168,68,318,133,69,66,14,207,252,13,284,141,160,61]",26.44567871,1.356872559,1,0,1,0,10,10,15,1,,,,,,,,,,,,,,,,,,,,,,,
,,,,,,,,,,,,,,4,FF,,3,1.48509,,,,,,,,,,,,,,,,,,,,,,,,,,,,,607a51b65477bb1614145a9c,60cc88e9cc21b78536cf56ad,2021-06-18_07h52.26.227,FlowerSimilarity_Experiment,2021.1.2,MacIntel,59.94125757,60cc862d586bafd4cd2fa98a,,,,,,-26.7767334,-99.15466309,1,0,1,response5disk,2,61,-12.62805176,-2.090759277,1,0,1,rectangle,80.84545898,-27.50378418,0,0,1,5,5,"[166,279,168,210,93,74,168,68,318,133,69,66,14,207,252,13,284,141,160,61]",28.9354248,-5.980041504,1,0,1,0,11,11,33,1,response3disk_3,rectangle,,,,,,,,,,,,,,,,,,,,,
,,,,,,,,,,,,,,1,FF,,2,1.8852,,,,,,,,,,,,,,,,,,,,,,,,,,,,,607a51b65477bb1614145a9c,60cc88e9cc21b78536cf56ad,2021-06-18_07h52.26.227,FlowerSimilarity_Experiment,2021.1.2,MacIntel,59.94125757,60cc862d586bafd4cd2fa98a,,,,,,-89.27062988,-44.22351074,1,0,1,response5disk,2,62,-4.891601563,-0.134399414,1,0,1,rectangle,-4.891601563,-0.134399414,1,0,1,5,1,"[166,279,168,210,93,74,168,68,318,133,69,66,14,207,252,13,284,141,160,61]",-4.891601563,-0.134399414,1,0,1,0,12,12,31,1,,,,,,,,,,,,,,,,,,,,,,,
,,,,,,,,,,,,,,7,FF,,1,2.3181,,,,,,,,,,,,,,,,,,,,,,,,,,,,,607a51b65477bb1614145a9c,60cc88e9cc21b78536cf56ad,2021-06-18_07h52.26.227,FlowerSimilarity_Experiment,2021.1.2,MacIntel,59.94125757,60cc862d586bafd4cd2fa98a,,,,,,-115.7305908,22.81341553,1,0,1,response7disk,1,63,-33.85400391,-1.786437988,1,0,1,rectangle,-33.85400391,-1.786437988,1,0,1,5,6,"[166,279,168,210,93,74,168,68,318,133,69,66,14,207,252,13,284,141,160,61]",-33.85400391,-1.786437988,1,0,1,0,13,13,4,1,,,,,,,,,,,,,,,,,,,,,,,
,,,,,,,,,,,,,,2,FF,,3,1.35085,,,,,,,,,,,,,,,,,,,,,,,,,,,,,607a51b65477bb1614145a9c,60cc88e9cc21b78536cf56ad,2021-06-18_07h52.26.227,FlowerSimilarity_Experiment,2021.1.2,MacIntel,59.94125757,60cc862d586bafd4cd2fa98a,,,,,,-41.23620605,-109.2855225,1,0,1,response5disk,5,64,1.968994141,10.22772217,1,0,1,rectangle,1.968994141,10.22772217,1,0,1,5,1,"[166,279,168,210,93,74,168,68,318,133,69,66,14,207,252,13,284,141,160,61]",1.968994141,10.22772217,1,0,1,0,14,14,19,1,,,,,,,,,,,,,,,,,,,,,,,
,,,,,,,,,,,,,,4,FF,,1,2.519505,,,,,,,,,,,,,,,,,,,,,,,,,,,,,607a51b65477bb1614145a9c,60cc88e9cc21b78536cf56ad,2021-06-18_07h52.26.227,FlowerSimilarity_Experiment,2021.1.2,MacIntel,59.94125757,60cc862d586bafd4cd2fa98a,,,,,,-122.4625854,32.69146729,1,0,1,response7disk,6,65,-33.04632568,-0.692565918,1,0,1,rectangle,-33.04632568,-0.692565918,1,0,1,5,3,"[166,279,168,210,93,74,168,68,318,133,69,66,14,207,252,13,284,141,160,61]",-33.04632568,-0.692565918,1,0,1,0,15,15,25,1,,,,,,,,,,,,,,,,,,,,,,,
,,,,,,,,,,,,,,7,FF,,2,1.042035,,,,,,,,,,,,,,,,,,,,,,,,,,,,,607a51b65477bb1614145a9c,60cc88e9cc21b78536cf56ad,2021-06-18_07h52.26.227,FlowerSimilarity_Experiment,2021.1.2,MacIntel,59.94125757,60cc862d586bafd4cd2fa98a,,,,,,-102.7016602,-40.70751953,1,0,1,response5disk,6,66,-34.83587646,-2.643676758,1,0,1,rectangle,-97.78118896,74.96325684,1,0,1,1,1,"[166,279,168,210,93,74,168,68,318,133,69,66,14,207,252,13,284,141,160,61]",-8.880004883,4.374084473,1,0,1,0,16,16,21,1,response7disk_3,rectangle,,,,,,,,,,,,,,,,,,,,,
,,,,,,,,,,,,,,2,FF,,7,0.80183,,,,,,,,,,,,,,,,,,,,,,,,,,,,,607a51b65477bb1614145a9c,60cc88e9cc21b78536cf56ad,2021-06-18_07h52.26.227,FlowerSimilarity_Experiment,2021.1.2,MacIntel,59.94125757,60cc862d586bafd4cd2fa98a,,,,,,49.40911865,102.9452209,1,0,1,response1disk,2,67,-4.245056152,-1.489135742,1,0,1,rectangle,-4.245056152,-1.489135742,1,0,1,1,5,"[166,279,168,210,93,74,168,68,318,133,69,66,14,207,252,13,284,141,160,61]",-4.245056152,-1.489135742,1,0,1,0,17,17,44,1,,,,,,,,,,,,,,,,,,,,,,,
,,,,,,,,,,,,,,2,FF,,4,1.668315,,,,,,,,,,,,,,,,,,,,,,,,,,,,,607a51b65477bb1614145a9c,60cc88e9cc21b78536cf56ad,2021-06-18_07h52.26.227,FlowerSimilarity_Experiment,2021.1.2,MacIntel,59.94125757,60cc862d586bafd4cd2fa98a,,,,,,20.42333984,-111.7267456,1,0,1,response3disk,4,68,2.3125,-5.86932373,1,0,1,rectangle,-76.28729248,54.31051636,1,0,1,1,1,"[166,279,168,210,93,74,168,68,318,133,69,66,14,207,252,13,284,141,160,61]",-11.22314453,9.286743164,1,0,1,0,18,18,38,1,response7disk_3,rectangle,,,,,,,,,,,,,,,,,,,,,
,,,,,,,,,,,,,,5,FF,,2,2.28572,,,,,,,,,,,,,,,,,,,,,,,,,,,,,607a51b65477bb1614145a9c,60cc88e9cc21b78536cf56ad,2021-06-18_07h52.26.227,FlowerSimilarity_Experiment,2021.1.2,MacIntel,59.94125757,60cc862d586bafd4cd2fa98a,,,,,,-82.8182373,-34.80090332,1,0,1,response5disk,7,69,-25.58349609,-8.346191406,1,0,1,rectangle,45.89733887,-116.9922485,1,0,1,4,4,"[166,279,168,210,93,74,168,68,318,133,69,66,14,207,252,13,284,141,160,61]",-9.852783203,1.125183105,1,0,1,0,19,19,8,1,response3disk_3,rectangle,,,,,,,,,,,,,,,,,,,,,
,,,,,,,,,,,,,,3,FF,,7,0.967405,,,,,,,,,,,,,,,,,,,,,,,,,,,,,607a51b65477bb1614145a9c,60cc88e9cc21b78536cf56ad,2021-06-18_07h52.26.227,FlowerSimilarity_Experiment,2021.1.2,MacIntel,59.94125757,60cc862d586bafd4cd2fa98a,,,,,,67.07788086,105.1535645,1,0,1,response1disk,3,70,18.24023438,-8.235412598,1,0,1,rectangle,18.24023438,-8.235412598,1,0,1,4,5,"[166,279,168,210,93,74,168,68,318,133,69,66,14,207,252,13,284,141,160,61]",18.24023438,-8.235412598,1,0,1,0,20,20,1,1,,,,,,,,,,,,,,,,,,,,,,,
,,,,,,,,,,,,,,4,FF,,2,2.117915,,,,,,,,,,,,,,,,,,,,,,,,,,,,,607a51b65477bb1614145a9c,60cc88e9cc21b78536cf56ad,2021-06-18_07h52.26.227,FlowerSimilarity_Experiment,2021.1.2,MacIntel,59.94125757,60cc862d586bafd4cd2fa98a,,,,,,-94.32714844,-60.64770508,1,0,1,response5disk,1,71,-28.99731445,7.416870117,1,0,1,rectangle,-28.99731445,7.416870117,1,0,1,4,7,"[166,279,168,210,93,74,168,68,318,133,69,66,14,207,252,13,284,141,160,61]",-28.99731445,7.416870117,1,0,1,0,21,21,0,1,,,,,,,,,,,,,,,,,,,,,,,
,,,,,,,,,,,,,,5,FF,,7,0.716475,,,,,,,,,,,,,,,,,,,,,,,,,,,,,607a51b65477bb1614145a9c,60cc88e9cc21b78536cf56ad,2021-06-18_07h52.26.227,FlowerSimilarity_Experiment,2021.1.2,MacIntel,59.94125757,60cc862d586bafd4cd2fa98a,,,,,,59.30969238,120.5865784,1,0,1,response1disk,5,72,-9.18762207,-12.37719727,1,0,1,rectangle,-9.18762207,-12.37719727,1,0,1,4,5,"[166,279,168,210,93,74,168,68,318,133,69,66,14,207,252,13,284,141,160,61]",-9.18762207,-12.37719727,1,0,1,0,22,22,22,1,,,,,,,,,,,,,,,,,,,,,,,
,,,,,,,,,,,,,,3,FF,,4,1.626205,,,,,,,,,,,,,,,,,,,,,,,,,,,,,607a51b65477bb1614145a9c,60cc88e9cc21b78536cf56ad,2021-06-18_07h52.26.227,FlowerSimilarity_Experiment,2021.1.2,MacIntel,59.94125757,60cc862d586bafd4cd2fa98a,,,,,,26.93444824,-104.1685791,1,0,1,response3disk,2,73,2.364624023,0.512878418,1,0,1,rectangle,2.364624023,0.512878418,1,0,1,4,1,"[166,279,168,210,93,74,168,68,318,133,69,66,14,207,252,13,284,141,160,61]",2.364624023,0.512878418,1,0,1,0,23,23,35,1,,,,,,,,,,,,,,,,,,,,,,,
,,,,,,,,,,,,,,6,FF,,1,2.001835,,,,,,,,,,,,,,,,,,,,,,,,,,,,,607a51b65477bb1614145a9c,60cc88e9cc21b78536cf56ad,2021-06-18_07h52.26.227,FlowerSimilarity_Experiment,2021.1.2,MacIntel,59.94125757,60cc862d586bafd4cd2fa98a,,,,,,-107.1153564,29.44326782,1,0,1,response7disk,5,74,1.732421875,-2.919677734,1,0,1,rectangle,50.61022949,-93.59295654,1,0,1,4,4,"[166,279,168,210,93,74,168,68,318,133,69,66,14,207,252,13,284,141,160,61]",19.99438477,-10.71716309,1,0,1,0,24,24,14,1,response3disk_3,rectangle,,,,,,,,,,,,,,,,,,,,,
,,,,,,,,,,,,,,7,FF,,4,1.18373,,,,,,,,,,,,,,,,,,,,,,,,,,,,,607a51b65477bb1614145a9c,60cc88e9cc21b78536cf56ad,2021-06-18_07h52.26.227,FlowerSimilarity_Experiment,2021.1.2,MacIntel,59.94125757,60cc862d586bafd4cd2fa98a,,,,,,39.54669189,-119.5487061,1,0,1,response3disk,2,75,-11.70397949,2.928222656,1,0,1,rectangle,-11.70397949,2.928222656,1,0,1,4,0,"[166,279,168,210,93,74,168,68,318,133,69,66,14,207,252,13,284,141,160,61]",-11.70397949,2.928222656,1,0,1,0,25,25,12,1,,,,,,,,,,,,,,,,,,,,,,,
,,,,,,,,,,,,,,3,FF,,4,1.500785,,,,,,,,,,,,,,,,,,,,,,,,,,,,,607a51b65477bb1614145a9c,60cc88e9cc21b78536cf56ad,2021-06-18_07h52.26.227,FlowerSimilarity_Experiment,2021.1.2,MacIntel,59.94125757,60cc862d586bafd4cd2fa98a,,,,,,37.62683105,-102.762146,1,0,1,response3disk,5,76,-16.53295898,-8.860900879,1,0,1,rectangle,-16.53295898,-8.860900879,1,0,1,4,7,"[166,279,168,210,93,74,168,68,318,133,69,66,14,207,252,13,284,141,160,61]",-16.53295898,-8.860900879,1,0,1,0,26,26,47,1,,,,,,,,,,,,,,,,,,,,,,,
,,,,,,,,,,,,,,5,FF,,1,1.317475,,,,,,,,,,,,,,,,,,,,,,,,,,,,,607a51b65477bb1614145a9c,60cc88e9cc21b78536cf56ad,2021-06-18_07h52.26.227,FlowerSimilarity_Experiment,2021.1.2,MacIntel,59.94125757,60cc862d586bafd4cd2fa98a,,,,,,-102.8530273,44.19802856,1,0,1,response7disk,1,77,-30.68328857,-1.889648438,1,0,1,rectangle,-30.68328857,-1.889648438,1,0,1,4,4,"[166,279,168,210,93,74,168,68,318,133,69,66,14,207,252,13,284,141,160,61]",-30.68328857,-1.889648438,1,0,1,0,27,27,45,1,,,,,,,,,,,,,,,,,,,,,,,
,,,,,,,,,,,,,,2,FF,,1,1.317905,,,,,,,,,,,,,,,,,,,,,,,,,,,,,607a51b65477bb1614145a9c,60cc88e9cc21b78536cf56ad,2021-06-18_07h52.26.227,FlowerSimilarity_Experiment,2021.1.2,MacIntel,59.94125757,60cc862d586bafd4cd2fa98a,,,,,,-105.3505859,50.29785156,1,0,1,response7disk,6,78,-24.06494141,-4.843383789,1,0,1,rectangle,-24.06494141,-4.843383789,1,0,1,4,2,"[166,279,168,210,93,74,168,68,318,133,69,66,14,207,252,13,284,141,160,61]",-24.06494141,-4.843383789,1,0,1,0,28,28,13,1,,,,,,,,,,,,,,,,,,,,,,,
,,,,,,,,,,,,,,4,FF,,2,2.227595,,,,,,,,,,,,,,,,,,,,,,,,,,,,,607a51b65477bb1614145a9c,60cc88e9cc21b78536cf56ad,2021-06-18_07h52.26.227,FlowerSimilarity_Experiment,2021.1.2,MacIntel,59.94125757,60cc862d586bafd4cd2fa98a,,,,,,-105.2212524,-23.68591309,1,0,1,response5disk,5,79,-20.59069824,11.99334717,1,0,1,rectangle,-20.59069824,11.99334717,1,0,1,4,0,"[166,279,168,210,93,74,168,68,318,133,69,66,14,207,252,13,284,141,160,61]",-20.59069824,11.99334717,1,0,1,0,29,29,18,1,,,,,,,,,,,,,,,,,,,,,,,
,,,,,,,,,,,,,,7,FF,,7,1.134965,,,,,,,,,,,,,,,,,,,,,,,,,,,,,607a51b65477bb1614145a9c,60cc88e9cc21b78536cf56ad,2021-06-18_07h52.26.227,FlowerSimilarity_Experiment,2021.1.2,MacIntel,59.94125757,60cc862d586bafd4cd2fa98a,,,,,,37.02856445,114.8066711,1,0,1,response1disk,3,80,6.100341797,9.562744141,1,0,1,rectangle,6.100341797,9.562744141,1,0,1,4,3,"[166,279,168,210,93,74,168,68,318,133,69,66,14,207,252,13,284,141,160,61]",6.100341797,9.562744141,1,0,1,0,30,30,9,1,,,,,,,,,,,,,,,,,,,,,,,
,,,,,,,,,,,,,,6,FF,,1,0.967655,,,,,,,,,,,,,,,,,,,,,,,,,,,,,607a51b65477bb1614145a9c,60cc88e9cc21b78536cf56ad,2021-06-18_07h52.26.227,FlowerSimilarity_Experiment,2021.1.2,MacIntel,59.94125757,60cc862d586bafd4cd2fa98a,,,,,,-108.8220825,49.39849854,1,0,1,response7disk,2,81,-18.25750732,15.17144775,1,0,1,rectangle,-18.25750732,15.17144775,1,0,1,4,2,"[166,279,168,210,93,74,168,68,318,133,69,66,14,207,252,13,284,141,160,61]",-18.25750732,15.17144775,1,0,1,0,31,31,11,1,,,,,,,,,,,,,,,,,,,,,,,
,,,,,,,,,,,,,,3,FF,,2,1.13283,,,,,,,,,,,,,,,,,,,,,,,,,,,,,607a51b65477bb1614145a9c,60cc88e9cc21b78536cf56ad,2021-06-18_07h52.26.227,FlowerSimilarity_Experiment,2021.1.2,MacIntel,59.94125757,60cc862d586bafd4cd2fa98a,,,,,,-107.4616699,-36.95788574,1,0,1,response5disk,4,82,-15.00622559,10.83331299,1,0,1,rectangle,-15.00622559,10.83331299,1,0,1,4,6,"[166,279,168,210,93,74,168,68,318,133,69,66,14,207,252,13,284,141,160,61]",-15.00622559,10.83331299,1,0,1,0,32,32,26,1,,,,,,,,,,,,,,,,,,,,,,,
,,,,,,,,,,,,,,5,FF,,2,1.56749,,,,,,,,,,,,,,,,,,,,,,,,,,,,,607a51b65477bb1614145a9c,60cc88e9cc21b78536cf56ad,2021-06-18_07h52.26.227,FlowerSimilarity_Experiment,2021.1.2,MacIntel,59.94125757,60cc862d586bafd4cd2fa98a,,,,,,-89.55157471,-27.92797852,1,0,1,response5disk,6,83,-37.13171387,-16.62927246,1,0,1,rectangle,-37.13171387,-16.62927246,1,0,1,4,6,"[166,279,168,210,93,74,168,68,318,133,69,66,14,207,252,13,284,141,160,61]",-37.13171387,-16.62927246,1,0,1,0,33,33,17,1,,,,,,,,,,,,,,,,,,,,,,,
,,,,,,,,,,,,,,2,FF,,1,1.55075,,,,,,,,,,,,,,,,,,,,,,,,,,,,,607a51b65477bb1614145a9c,60cc88e9cc21b78536cf56ad,2021-06-18_07h52.26.227,FlowerSimilarity_Experiment,2021.1.2,MacIntel,59.94125757,60cc862d586bafd4cd2fa98a,,,,,,-106.3129272,22.75872803,1,0,1,response7disk,3,84,-27.65637207,-15.79748535,1,0,1,rectangle,-27.65637207,-15.79748535,1,0,1,4,7,"[166,279,168,210,93,74,168,68,318,133,69,66,14,207,252,13,284,141,160,61]",-27.65637207,-15.79748535,1,0,1,0,34,34,36,1,,,,,,,,,,,,,,,,,,,,,,,
,,,,,,,,,,,,,,7,FF,,7,0.767965,,,,,,,,,,,,,,,,,,,,,,,,,,,,,607a51b65477bb1614145a9c,60cc88e9cc21b78536cf56ad,2021-06-18_07h52.26.227,FlowerSimilarity_Experiment,2021.1.2,MacIntel,59.94125757,60cc862d586bafd4cd2fa98a,,,,,,32.4029541,93.1451416,1,0,1,response1disk,7,85,9.690185547,7.878540039,1,0,1,rectangle,9.690185547,7.878540039,1,0,1,4,3,"[166,279,168,210,93,74,168,68,318,133,69,66,14,207,252,13,284,141,160,61]",9.690185547,7.878540039,1,0,1,0,35,35,3,1,,,,,,,,,,,,,,,,,,,,,,,
,,,,,,,,,,,,,,1,FF,,5,1.93435,,,,,,,,,,,,,,,,,,,,,,,,,,,,,607a51b65477bb1614145a9c,60cc88e9cc21b78536cf56ad,2021-06-18_07h52.26.227,FlowerSimilarity_Experiment,2021.1.2,MacIntel,59.94125757,60cc862d586bafd4cd2fa98a,,,,,,81.1262207,-49.43768311,1,0,1,response3disk,6,86,2.18182373,-8.491882324,1,0,1,rectangle,2.18182373,-8.491882324,1,0,1,4,1,"[166,279,168,210,93,74,168,68,318,133,69,66,14,207,252,13,284,141,160,61]",2.18182373,-8.491882324,1,0,1,0,36,36,30,1,,,,,,,,,,,,,,,,,,,,,,,
,,,,,,,,,,,,,,3,FF,,2,4.694915,,,,,,,,,,,,,,,,,,,,,,,,,,,,,607a51b65477bb1614145a9c,60cc88e9cc21b78536cf56ad,2021-06-18_07h52.26.227,FlowerSimilarity_Experiment,2021.1.2,MacIntel,59.94125757,60cc862d586bafd4cd2fa98a,,,,,,-121.0445557,-85.2286377,0,0,1,response5disk,1,87,-39.41894531,-1.915405273,1,0,1,rectangle,-39.41894531,-1.915405273,1,0,1,4,5,"[166,279,168,210,93,74,168,68,318,133,69,66,14,207,252,13,284,141,160,61]",-39.41894531,-1.915405273,1,0,1,0,37,37,6,1,,,,,,,,,,,,,,,,,,,,,,,
,,,,,,,,,,,,,,4,FF,,7,0.98395,,,,,,,,,,,,,,,,,,,,,,,,,,,,,607a51b65477bb1614145a9c,60cc88e9cc21b78536cf56ad,2021-06-18_07h52.26.227,FlowerSimilarity_Experiment,2021.1.2,MacIntel,59.94125757,60cc862d586bafd4cd2fa98a,,,,,,60.05297852,93.246521,1,0,1,response1disk,4,88,-2.591125488,-2.971435547,1,0,1,rectangle,-2.591125488,-2.971435547,1,0,1,4,5,"[166,279,168,210,93,74,168,68,318,133,69,66,14,207,252,13,284,141,160,61]",-2.591125488,-2.971435547,1,0,1,0,38,38,37,1,,,,,,,,,,,,,,,,,,,,,,,
,,,,,,,,,,,,,,6,FF,,1,1.284755,,,,,,,,,,,,,,,,,,,,,,,,,,,,,607a51b65477bb1614145a9c,60cc88e9cc21b78536cf56ad,2021-06-18_07h52.26.227,FlowerSimilarity_Experiment,2021.1.2,MacIntel,59.94125757,60cc862d586bafd4cd2fa98a,,,,,,-110.5737305,76.86090088,1,0,1,response7disk,3,89,-19.79840088,-0.245483398,1,0,1,rectangle,-19.79840088,-0.245483398,1,0,1,4,1,"[166,279,168,210,93,74,168,68,318,133,69,66,14,207,252,13,284,141,160,61]",-19.79840088,-0.245483398,1,0,1,0,39,39,10,1,,,,,,,,,,,,,,,,,,,,,,,
,,,,,,,,,,,,,,1,FF,,1,1.03518,,,,,,,,,,,,,,,,,,,,,,,,,,,,,607a51b65477bb1614145a9c,60cc88e9cc21b78536cf56ad,2021-06-18_07h52.26.227,FlowerSimilarity_Experiment,2021.1.2,MacIntel,59.94125757,60cc862d586bafd4cd2fa98a,,,,,,-110.8097534,44.73712158,1,0,1,response7disk,5,90,-19.33300781,5.489257813,1,0,1,rectangle,-19.33300781,5.489257813,1,0,1,4,3,"[166,279,168,210,93,74,168,68,318,133,69,66,14,207,252,13,284,141,160,61]",-19.33300781,5.489257813,1,0,1,0,40,40,2,1,,,,,,,,,,,,,,,,,,,,,,,
,,,,,,,,,,,,,,6,FF,,2,0.918525,,,,,,,,,,,,,,,,,,,,,,,,,,,,,607a51b65477bb1614145a9c,60cc88e9cc21b78536cf56ad,2021-06-18_07h52.26.227,FlowerSimilarity_Experiment,2021.1.2,MacIntel,59.94125757,60cc862d586bafd4cd2fa98a,,,,,,-104.1326904,-60.99328613,1,0,1,response5disk,4,91,-15.91271973,11.28936768,1,0,1,rectangle,-15.91271973,11.28936768,1,0,1,4,0,"[166,279,168,210,93,74,168,68,318,133,69,66,14,207,252,13,284,141,160,61]",-15.91271973,11.28936768,1,0,1,0,41,41,23,1,,,,,,,,,,,,,,,,,,,,,,,
,,,,,,,,,,,,,,3,FF,,0,1.135625,,,,,,,,,,,,,,,,,,,,,,,,,,,,,607a51b65477bb1614145a9c,60cc88e9cc21b78536cf56ad,2021-06-18_07h52.26.227,FlowerSimilarity_Experiment,2021.1.2,MacIntel,59.94125757,60cc862d586bafd4cd2fa98a,,,,,,-66.29455566,94.27819824,1,0,1,response7disk,6,92,-10.2878418,2.410583496,1,0,1,rectangle,-10.2878418,2.410583496,1,0,1,4,0,"[166,279,168,210,93,74,168,68,318,133,69,66,14,207,252,13,284,141,160,61]",-10.2878418,2.410583496,1,0,1,0,42,42,20,1,,,,,,,,,,,,,,,,,,,,,,,
,,,,,,,,,,,,,,6,FF,,4,1.435005,,,,,,,,,,,,,,,,,,,,,,,,,,,,,607a51b65477bb1614145a9c,60cc88e9cc21b78536cf56ad,2021-06-18_07h52.26.227,FlowerSimilarity_Experiment,2021.1.2,MacIntel,59.94125757,60cc862d586bafd4cd2fa98a,,,,,,66.09729004,-89.78265381,1,0,1,response3disk,1,93,26.03619385,-1.934936523,1,0,1,rectangle,23.1494751,-85.86096191,1,0,1,4,4,"[166,279,168,210,93,74,168,68,318,133,69,66,14,207,252,13,284,141,160,61]",7.890869141,-4.541809082,1,0,1,0,43,43,39,1,response3disk_3,rectangle,,,,,,,,,,,,,,,,,,,,,
,,,,,,,,,,,,,,6,FF,,1,1.001065,,,,,,,,,,,,,,,,,,,,,,,,,,,,,607a51b65477bb1614145a9c,60cc88e9cc21b78536cf56ad,2021-06-18_07h52.26.227,FlowerSimilarity_Experiment,2021.1.2,MacIntel,59.94125757,60cc862d586bafd4cd2fa98a,,,,,,-124.8497925,37.77844238,1,0,1,response7disk,7,94,11.66473389,-7.59387207,1,0,1,rectangle,11.66473389,-7.59387207,1,0,1,4,5,"[166,279,168,210,93,74,168,68,318,133,69,66,14,207,252,13,284,141,160,61]",11.66473389,-7.59387207,1,0,1,0,44,44,32,1,,,,,,,,,,,,,,,,,,,,,,,
,,,,,,,,,,,,,,3,FF,,7,1.05007,,,,,,,,,,,,,,,,,,,,,,,,,,,,,607a51b65477bb1614145a9c,60cc88e9cc21b78536cf56ad,2021-06-18_07h52.26.227,FlowerSimilarity_Experiment,2021.1.2,MacIntel,59.94125757,60cc862d586bafd4cd2fa98a,,,,,,63.8480835,94.25305176,1,0,1,response1disk,7,95,22.81591797,-1.42364502,1,0,1,rectangle,22.81591797,-1.42364502,1,0,1,4,7,"[166,279,168,210,93,74,168,68,318,133,69,66,14,207,252,13,284,141,160,61]",22.81591797,-1.42364502,1,0,1,0,45,45,29,1,,,,,,,,,,,,,,,,,,,,,,,
,,,,,,,,,,,,,,4,FF,,4,2.176755,,,,,,,,,,,,,,,,,,,,,,,,,,,,,607a51b65477bb1614145a9c,60cc88e9cc21b78536cf56ad,2021-06-18_07h52.26.227,FlowerSimilarity_Experiment,2021.1.2,MacIntel,59.94125757,60cc862d586bafd4cd2fa98a,,,,,,31.27832031,-101.4162598,1,0,1,response3disk,7,96,2.407775879,16.97741699,1,0,1,rectangle,2.407775879,16.97741699,1,0,1,4,7,"[166,279,168,210,93,74,168,68,318,133,69,66,14,207,252,13,284,141,160,61]",2.407775879,16.97741699,1,0,1,0,46,46,16,1,,,,,,,,,,,,,,,,,,,,,,,
,,,,,,,,,,,,,,6,FF,,7,0.751,,,,,,,,,,,,,,,,,,,,,,,,,,,,,607a51b65477bb1614145a9c,60cc88e9cc21b78536cf56ad,2021-06-18_07h52.26.227,FlowerSimilarity_Experiment,2021.1.2,MacIntel,59.94125757,60cc862d586bafd4cd2fa98a,,,,,,50.35791016,99.13916016,1,0,1,response1disk,6,97,15.29644775,9.984558105,1,0,1,rectangle,15.29644775,9.984558105,1,0,1,4,5,"[166,279,168,210,93,74,168,68,318,133,69,66,14,207,252,13,284,141,160,61]",15.29644775,9.984558105,1,0,1,0,47,47,46,1,,,,,,,,,,,,,,,,,,,,,,,
,,,,,,,,,,,,,,1,FF,,1,1.732865,,,,,,,,,,,,,,,,,,,,,,,,,,,,,607a51b65477bb1614145a9c,60cc88e9cc21b78536cf56ad,2021-06-18_07h52.26.227,FlowerSimilarity_Experiment,2021.1.2,MacIntel,59.94125757,60cc862d586bafd4cd2fa98a,,,,,,-113.2545166,29.77612305,1,0,1,response7disk,4,98,-25.6998291,-5.396850586,1,0,1,rectangle,-25.6998291,-5.396850586,1,0,1,4,4,"[166,279,168,210,93,74,168,68,318,133,69,66,14,207,252,13,284,141,160,61]",-25.6998291,-5.396850586,1,0,1,0,48,48,27,1,,,,,,,,,,,,,,,,,,,,,,,
,,,,,,,,,,,,,,,,,,,,,,,,,,,,,,,,,,,,,,,,,,,,,,,607a51b65477bb1614145a9c,60cc88e9cc21b78536cf56ad,2021-06-18_07h52.26.227,FlowerSimilarity_Experiment,2021.1.2,MacIntel,59.94125757,60cc862d586bafd4cd2fa98a,,,,,,,,,,,,,,,,,,,,,,,,,,,,,,,,,,,,,,,,1,0,1,0,1,,,,,,,,,,,,,,,,
,,,,,,,,,,,,,,,,,,,,,,,,,,,,,,,,,,,,,,,,,,,,,,,607a51b65477bb1614145a9c,60cc88e9cc21b78536cf56ad,2021-06-18_07h52.26.227,FlowerSimilarity_Experiment,2021.1.2,MacIntel,59.94125757,60cc862d586bafd4cd2fa98a,,,,,,,,,,,,,,,,,,,,,,,,,,,,,,,,,,,,,,,,,,,,,n,13.572395,y,8.272785,n,2.77438,variation of color and middle portion,15.10376,4,3.26712,3,3.19382,once or twice per month,17.470895,,1.33929
